"Handling","Reward","Choice","Task.RT","Choice.RT","Experiment.Time","Trial.Outcome","Task.Type","Task.Setup","Block"
2,20,1,0.626024007797241,1.99923419952393,9.04755306243896,"0",1,5,1
2,20,1,0.698081016540527,1.99896287918091,29.1142361164093,"0",1,6,1
2,8,1,0.897165060043335,2.01652097702026,49.1813981533051,"0",2,2,1
2,4,1,0.757589101791382,1.99935603141785,69.2315151691437,"0",0,7,1
2,8,1,0.666695117950439,1.9991500377655,89.3484301567078,"0",0,7,1
2,4,1,0.628064155578613,1.99857211112976,109.398019075394,"0",0,1,1
2,20,1,0.632773160934448,1.99929809570312,129.448668956757,"0",0,5,1
2,4,1,0.571952104568481,1.99930095672607,149.498965024948,"0",1,7,1
2,20,1,0.525460958480835,2.00005292892456,169.549244165421,"0",1,4,1
2,8,1,0.590425968170166,1.9994101524353,189.599426031113,"0",0,0,1
2,8,1,0.469048976898193,1.99912118911743,209.649599075317,"0",1,3,1
2,4,2,0.997080087661743,2.01601696014404,229.716743946075,"0",2,6,1
2,8,1,0.564935922622681,2.01584315299988,247.766710042953,"0",2,3,1
2,20,1,0.558271884918213,1.99921798706055,267.816920995712,"0",0,7,1
2,4,1,0.815407991409302,2.01571106910706,287.883641004562,"0",2,2,1
2,8,1,0.465476036071777,2.01621294021606,307.95060300827,"0",2,3,1
2,20,1,0.537515878677368,1.99927616119385,328.000899076462,"0",0,2,1
2,4,1,0.528349161148071,1.999263048172,348.051104068756,"0",0,5,1
2,20,1,0.748469114303589,2.01608204841614,368.117953062057,"0",2,5,1
2,4,2,0.514580965042114,2.00002694129944,388.168138980865,"0",1,1,1
2,20,1,0.511175155639648,1.9994649887085,406.20165014267,"0",0,3,1
14,4,0,0.453333854675293,0.456731081008911,430.85938501358,"0",1,2,2
14,8,1,0.782364130020142,2.01666307449341,436.902470111847,"0",2,1,2
14,8,1,0.514307975769043,4.01602721214294,438.901833057404,"0",2,2,2
14,8,1,0.430644035339355,6.01577520370483,440.901581048965,"0",2,5,2
14,8,1,0.431427001953125,8.01603317260742,442.901839017868,"0",2,2,2
14,8,1,0.663233995437622,10.0162110328674,444.902018070221,"0",2,3,2
14,8,1,0.765589952468872,11.9996042251587,446.885411024094,"0",1,6,2
14,8,1,0.605001926422119,13.9996681213379,448.885473966599,"0",0,7,2
14,20,1,0.521283864974976,1.9996120929718,456.935565948486,"0",0,1,2
14,20,2,0.898249864578247,4.01594710350037,458.951900959015,"0",2,5,2
14,20,1,0.673748016357422,5.99960207939148,460.935557126999,"0",1,4,2
14,20,1,0.574604988098145,7.99958109855652,462.935536146164,"0",0,4,2
14,20,1,0.497652053833008,9.99939608573914,464.935349941254,"0",1,3,2
14,20,2,0.631987810134888,12.0163052082062,466.952259063721,"0",2,7,2
14,8,1,0.917458057403564,1.9990770816803,472.985301971436,"0",0,3,2
14,8,1,0.53087592124939,3.99921202659607,474.98543715477,"0",1,1,2
14,8,1,0.58606219291687,5.99942302703857,476.985649108887,"0",1,6,2
14,8,1,0.555063009262085,7.99945116043091,478.985676050186,"0",1,1,2
14,8,1,0.546763896942139,10.0162379741669,481.002463102341,"0",2,4,2
14,8,1,0.778600931167603,11.9993031024933,482.985527992249,"0",0,3,2
14,8,1,0.881065845489502,14.0162401199341,485.002465009689,"0",2,7,2
14,20,1,0.764899015426636,2.01648187637329,493.06955909729,"0",2,1,2
14,20,1,0.499370098114014,3.99948191642761,495.052559137344,"0",0,4,2
14,20,1,0.528681039810181,5.99932289123535,497.052400112152,"0",1,4,2
14,20,1,0.532014131546021,7.99933505058289,499.052412033081,"0",1,1,2
14,20,1,0.797445058822632,10.0158998966217,501.068977117538,"0",2,6,2
14,20,1,0.647017955780029,11.9993970394135,503.052474021912,"0",0,6,2
14,20,1,0.553577184677124,13.999568939209,505.0526471138,"0",1,6,2
14,4,0,0.331588983535767,0.336035966873169,511.439435005188,"0",1,4,2
14,8,1,0.475266218185425,1.9994969367981,517.469529151917,"0",1,4,2
14,8,1,0.531128883361816,3.99884986877441,519.468882083893,"0",0,2,2
14,8,1,0.598735094070435,5.99927997589111,521.469311952591,"0",1,6,2
14,8,1,0.420131921768188,7.99940395355225,523.469436168671,"0",1,7,2
14,8,1,0.426337003707886,9.99946308135986,525.469496011734,"0",1,1,2
14,8,1,0.864986896514893,12.0155730247498,527.485604047775,"0",2,3,2
14,8,1,0.56481409072876,13.9995119571686,529.469545125961,"0",0,3,2
14,20,1,0.540353059768677,1.99901509284973,537.51945400238,"0",1,3,2
14,20,1,0.511650800704956,3.99920296669006,539.519643068314,"0",1,0,2
14,20,1,0.488152027130127,5.99922204017639,541.5196621418,"0",1,2,2
14,20,1,0.472589015960693,7.99904298782349,543.519482135773,"0",1,2,2
14,20,1,0.606217861175537,9.99929404258728,545.519732952118,"0",0,5,2
14,20,1,0.781440019607544,12.0159170627594,547.536355018616,"0",2,7,2
14,20,1,0.614632844924927,14.0157680511475,549.536206007004,"0",2,3,2
14,20,1,0.641608953475952,1.99967193603516,557.586594104767,"0",0,4,2
14,20,1,0.53988790512085,3.99969696998596,559.586619138718,"0",0,5,2
14,20,1,0.488955020904541,5.99971914291382,561.586641073227,"0",1,1,2
14,20,1,0.553008079528809,7.99973297119141,563.586656093597,"0",0,3,2
14,20,1,0.964657068252563,10.0164151191711,565.603337049484,"0",2,7,2
14,20,1,0.499356985092163,11.9996659755707,567.586589097977,"0",0,3,2
14,20,1,0.473026037216187,13.9997029304504,569.586626052856,"0",1,3,2
14,8,1,0.782120943069458,2.01589703559875,577.653485059738,"0",2,0,2
14,8,1,0.524990081787109,3.99928092956543,579.636868953705,"0",0,2,2
14,8,2,0.89805006980896,6.01589798927307,581.653486967087,"0",2,1,2
14,8,1,0.58586311340332,7.99941682815552,583.637005090714,"0",1,6,2
14,8,1,0.593299865722656,9.99869990348816,585.636288166046,"0",0,7,2
14,8,2,0.996227025985718,12.015909910202,587.653499126434,"0",2,3,2
14,4,0,0.299154996871948,0.300984144210815,591.988753080368,"0",2,5,2
14,4,0,1.56715297698975,1.56719303131104,597.588633060455,"0",2,7,2
14,8,1,0.491204023361206,1.99930286407471,603.620448112488,"0",0,2,2
14,8,1,0.796706914901733,4.01590085029602,605.637047052383,"0",2,0,2
14,8,1,0.562160968780518,5.99904704093933,607.620192050934,"0",0,6,2
14,8,1,0.441049098968506,7.99905705451965,609.620202064514,"0",1,3,2
14,8,1,0.485247850418091,9.99930095672607,611.620445966721,"0",0,6,2
14,8,1,0.747340202331543,12.0157558917999,613.636901140213,"0",2,6,2
14,8,1,0.713925838470459,13.9993178844452,615.620464086533,"0",0,2,2
14,20,1,0.549165010452271,1.99895787239075,623.670272111893,"0",0,7,2
14,20,1,0.747113943099976,4.01599192619324,625.687306165695,"0",2,6,2
14,20,1,0.525754928588867,5.99906706809998,627.670381069183,"0",0,2,2
14,20,1,0.548413991928101,7.99939799308777,629.670711994171,"0",0,3,2
14,20,1,0.384552001953125,9.99929904937744,631.670613050461,"0",1,3,2
14,20,1,0.664148807525635,12.0160100460052,633.687325000763,"0",2,6,2
14,20,1,0.546995878219604,13.999391078949,635.670706033707,"0",1,2,2
14,4,0,0.249018907546997,0.250906944274902,641.972285985947,"0",2,4,2
14,20,1,0.644035816192627,1.99918293952942,648.004101037979,"0",1,6,2
14,20,2,0.763658046722412,4.01593899726868,650.020856142044,"0",2,3,2
14,20,1,0.646611213684082,6.01572394371033,652.020641088486,"0",2,6,2
14,20,1,0.531400918960571,8.01599502563477,654.02091217041,"0",2,4,2
14,20,1,0.612380027770996,9.99916005134583,656.004076957703,"0",0,3,2
14,20,1,0.609488964080811,11.9993469715118,658.004264116287,"0",0,2,2
14,20,1,0.480544090270996,13.9991769790649,660.004093170166,"0",1,5,2
14,4,0,0.381850957870483,0.401564836502075,666.456673145294,"0",0,2,2
14,8,1,0.765529870986938,2.01647090911865,672.504670143127,"0",2,5,2
14,8,2,0.996542930603027,4.01532006263733,674.503519058228,"0",2,3,2
14,8,1,0.531647920608521,6.01632595062256,676.504523992538,"0",2,7,2
14,8,1,0.44684910774231,8.01635599136353,678.504554986954,"0",2,7,2
14,8,1,0.698325872421265,10.0164048671722,680.504604101181,"0",2,1,2
14,8,1,0.594840049743652,11.9994430541992,682.487642049789,"0",0,4,2
14,8,1,0.464881181716919,14.0164070129395,684.50460600853,"0",2,7,2
14,8,1,0.517116069793701,1.99944519996643,692.554620027542,"0",0,4,2
14,8,1,0.507368087768555,3.99943113327026,694.554605007172,"0",1,2,2
14,8,1,0.530663013458252,6.01622009277344,696.571393966675,"0",2,3,2
14,8,1,0.580442905426025,8.01627707481384,698.571452140808,"0",2,7,2
14,8,1,0.451520919799805,9.99954009056091,700.554713964462,"0",1,3,2
14,8,1,0.511842966079712,11.9993431568146,702.554517030716,"0",1,1,2
14,8,1,0.506839990615845,13.9994161128998,704.554589986801,"0",0,6,2
14,8,0,0.410624980926514,0.43061900138855,711.03607416153,"0",0,2,2
14,4,0,0.478245973587036,0.498055934906006,715.57037115097,"0",0,7,2
14,20,1,0.665938854217529,2.01689600944519,721.621919155121,"0",2,2,2
14,20,1,0.430392980575562,4.0163950920105,723.621417999268,"0",2,6,2
14,20,1,0.463171005249023,5.99992609024048,725.604949951172,"0",1,7,2
14,20,1,0.53110408782959,8.01660203933716,727.621626138687,"0",2,7,2
14,20,1,0.390671014785767,9.99999499320984,729.60501909256,"0",1,5,2
14,20,1,0.38064980506897,11.9996690750122,731.604691982269,"0",1,4,2
14,20,1,0.470498085021973,14.000030040741,733.605052947998,"0",0,6,2
14,20,1,0.436439990997314,1.99946403503418,741.655109167099,"0",1,7,2
14,20,1,0.557898044586182,3.99949598312378,743.655141115189,"0",1,2,2
14,20,1,0.447219133377075,5.99951004981995,745.655154943466,"0",1,3,2
14,20,1,0.431407928466797,7.99931311607361,747.654957056046,"0",1,2,2
14,20,1,0.425975799560547,9.99939393997192,749.655038118362,"0",0,6,2
14,20,1,0.748291969299316,12.0162270069122,751.671870946884,"0",2,1,2
14,20,1,0.536674022674561,13.9996140003204,753.655259132385,"0",1,2,2
14,4,0,0.278348922729492,0.282817125320435,759.988624095917,"0",1,4,2
14,8,0,0.232234954833984,0.251873970031738,764.274770021439,"0",0,1,2
14,8,0,0.260180950164795,0.280104160308838,768.586579084396,"0",0,7,2
14,20,1,0.648636102676392,2.01663994789124,774.639600992203,"0",2,2,2
14,20,1,0.631791114807129,3.99916887283325,776.62212896347,"0",0,3,2
14,20,1,0.411857128143311,5.99920392036438,778.622166156769,"0",1,0,2
14,20,1,0.577445030212402,7.99928784370422,780.622250080109,"0",0,7,2
14,20,1,0.388302803039551,9.99924898147583,782.622210979462,"0",1,1,2
14,20,1,0.697937965393066,12.0160048007965,784.638967037201,"0",2,6,2
14,20,1,0.561291933059692,13.9990928173065,786.622054100037,"0",0,6,2
14,4,0,1.351154088974,1.3511950969696,794.024374008179,"0",2,2,2
14,4,0,0.248284101486206,0.250036001205444,798.306682109833,"0",2,5,2
14,20,1,0.514857053756714,2.01635503768921,804.355934143066,"0",2,1,2
14,20,1,0.448317050933838,3.99937319755554,806.338952064514,"0",0,1,2
14,20,1,0.420039892196655,5.9995641708374,808.339143037796,"0",1,2,2
14,20,1,0.547065019607544,7.99968004226685,810.339259147644,"0",0,7,2
14,20,1,0.414129972457886,9.99942517280579,812.339004039764,"0",1,1,2
14,20,1,0.598229169845581,12.0163531303406,814.355931043625,"0",2,3,2
14,20,1,0.666447877883911,13.9994661808014,816.339046001434,"0",0,3,2
14,8,0,0.265993118286133,0.267758846282959,822.658002138138,"0",2,0,2
14,4,0,0.326240062713623,0.346190929412842,827.036347150803,"0",0,6,2
14,20,1,0.715120792388916,2.01624798774719,833.08958697319,"0",2,2,2
14,20,1,0.930683135986328,4.01612496376038,835.089465141296,"0",2,7,2
14,20,1,0.846585988998413,6.01602005958557,837.089359998703,"0",2,3,2
14,20,1,0.640771150588989,7.99925899505615,839.072597980499,"0",1,6,2
14,20,1,0.511790990829468,9.9993040561676,841.072643041611,"0",1,6,2
14,20,1,0.531956911087036,11.9995000362396,843.072839021683,"0",0,3,2
14,20,1,0.487071990966797,13.9994468688965,845.072785139084,"0",1,2,2
10,8,1,0.614856958389282,2.01526117324829,859.506139039993,"0",2,7,3
10,8,1,0.734296083450317,3.99880599975586,861.489685058594,"0",0,6,3
10,8,1,0.531337022781372,5.99887919425964,863.489758014679,"0",1,0,3
10,8,1,0.614699125289917,8.01534199714661,865.50622010231,"0",2,1,3
10,8,1,0.538771152496338,9.99888110160828,867.489760160446,"0",1,5,3
10,4,0,0.246362924575806,0.267918109893799,877.808423042297,"0",0,2,3
10,8,1,0.552604913711548,1.9991660118103,887.83996295929,"0",1,1,3
10,8,1,0.462837934494019,3.99917101860046,889.839969158173,"0",1,1,3
10,8,1,0.76348614692688,6.01570510864258,891.856502056122,"0",2,2,3
10,8,1,0.665143966674805,8.01587891578674,893.856676101685,"0",2,0,3
10,8,1,0.613342046737671,10.0159709453583,895.85676908493,"0",2,5,3
10,4,0,0.265610933303833,0.267547845840454,906.174999952316,"0",2,3,3
10,20,1,0.527773141860962,1.99933505058289,916.206887960434,"0",1,3,3
10,20,1,0.680521011352539,4.01608204841614,918.223634958267,"0",2,2,3
10,20,1,0.530359983444214,5.99920415878296,920.206757068634,"0",0,6,3
10,20,1,0.499347925186157,7.99948215484619,922.207035064697,"0",0,4,3
10,20,1,0.557497978210449,9.99924898147583,924.206802129745,"0",1,3,3
10,20,1,0.576907873153687,1.9992949962616,936.257266998291,"0",0,0,3
10,20,1,0.697962999343872,4.01594400405884,938.273916959763,"0",2,3,3
10,20,1,0.487735033035278,5.99903988838196,940.257013082504,"0",0,0,3
10,20,1,0.529397010803223,7.99904799461365,942.257020950317,"0",1,6,3
10,20,1,0.401184797286987,9.99904894828796,944.25702214241,"0",1,7,3
10,4,0,0.233192920684814,0.237035989761353,954.544939041138,"0",1,2,3
10,4,0,0.265611886978149,0.267382860183716,962.84255695343,"0",2,0,3
10,20,1,0.518541097640991,1.99916100502014,972.874231100082,"0",0,0,3
10,20,1,0.466828107833862,3.99935698509216,974.874427080154,"0",0,0,3
10,20,1,0.599709033966064,5.99896502494812,976.874034166336,"0",0,7,3
10,20,1,0.664958953857422,8.01582217216492,978.890892028809,"0",2,4,3
10,20,1,0.420427083969116,9.99928998947144,980.874359130859,"0",1,7,3
10,8,2,0.864353179931641,2.01557898521423,992.940829992294,"0",2,2,3
10,8,1,0.504772901535034,3.9991409778595,994.924392938614,"0",0,1,3
10,8,1,0.515079021453857,6.01595187187195,996.941203117371,"0",2,5,3
10,8,1,0.448239088058472,8.01592206954956,998.94117307663,"0",2,4,3
10,8,1,0.467712163925171,9.99888706207275,1000.92413806915,"0",1,0,3
10,20,1,0.550854921340942,1.99933314323425,1012.9746119976,"0",1,2,3
10,20,1,0.607753038406372,3.99937510490417,1014.97465395927,"0",0,3,3
10,20,1,0.415657043457031,5.99918007850647,1016.9744579792,"0",1,4,3
10,20,1,0.431294918060303,7.99935698509216,1018.97463607788,"0",1,3,3
10,20,1,0.53041410446167,10.0161919593811,1020.9914700985,"0",2,0,3
10,8,1,0.589826822280884,1.99934601783752,1033.04155111313,"0",0,2,3
10,8,1,0.527146816253662,3.99932408332825,1035.0415289402,"0",0,7,3
10,8,1,0.548212051391602,6.01577210426331,1037.05797696114,"0",2,3,3
10,8,1,0.479870796203613,7.99925208091736,1039.04145812988,"0",1,4,3
10,8,1,0.411109924316406,9.99932813644409,1041.04153394699,"0",1,5,3
10,8,1,0.581892013549805,2.01592493057251,1053.12498116493,"0",2,7,3
10,8,1,0.710632085800171,3.99905395507812,1055.10810899734,"0",0,4,3
10,8,1,0.601627111434937,5.99896097183228,1057.1080160141,"0",0,3,3
10,8,1,0.765236854553223,8.01584792137146,1059.12490296364,"0",2,7,3
10,8,1,0.559704065322876,9.99920296669006,1061.10825800896,"0",0,0,3
10,4,0,0.204642057418823,0.224611043930054,1071.38399100304,"0",0,6,3
10,20,1,0.583918809890747,1.99920392036438,1081.42539811134,"0",0,5,3
10,20,1,0.413496017456055,3.99919104576111,1083.42538499832,"0",0,2,3
10,20,1,0.550294876098633,5.99896001815796,1085.42515397072,"0",1,1,3
10,20,1,0.698011159896851,8.01587104797363,1087.44206500053,"0",2,3,3
10,20,1,0.539379119873047,9.99905300140381,1089.42524695396,"0",0,0,3
10,20,1,0.582140922546387,2.01588201522827,1101.49201011658,"0",2,5,3
10,20,1,0.384533166885376,3.99946904182434,1103.47559714317,"0",1,4,3
10,20,1,0.51496410369873,5.999263048172,1105.47538995743,"0",0,1,3
10,20,1,0.429446935653687,7.99945902824402,1107.4755859375,"0",0,2,3
10,20,1,0.567203044891357,9.99950003623962,1109.4756269455,"0",0,5,3
10,8,1,0.631456851959229,2.01605987548828,1121.54238414764,"0",2,7,3
10,8,1,0.480346918106079,3.99937582015991,1123.52570009232,"0",0,0,3
10,8,1,0.997863054275513,5.99922800064087,1125.52555203438,"0",2,1,3
10,8,1,0.444681167602539,7.99951195716858,1127.52583694458,"0",0,7,3
10,8,1,0.386059045791626,9.99920797348022,1129.52553296089,"0",1,2,3
10,4,0,0.26599383354187,0.268882036209106,1139.84564113617,"0",1,3,3
10,4,0,0.225878000259399,0.230319023132324,1148.10747599602,"0",1,1,3
10,20,1,0.543206930160522,1.99956393241882,1158.1428539753,"0",0,3,3
10,20,1,0.469447135925293,3.99948692321777,1160.14277911186,"0",1,6,3
10,20,1,0.379312038421631,5.99934601783752,1162.14263701439,"0",1,6,3
10,20,1,0.53151798248291,8.01598906517029,1164.15927910805,"0",2,1,3
10,20,1,0.432003021240234,9.99961686134338,1166.14290904999,"0",1,6,3
10,4,0,0.23265814781189,0.234421968460083,1176.42814803123,"0",2,6,3
10,8,1,0.525659084320068,1.99912595748901,1186.45954012871,"0",1,5,3
10,8,1,0.48884105682373,3.99933195114136,1188.45974707603,"0",0,6,3
10,8,1,0.546888113021851,6.01576614379883,1190.4761800766,"0",2,7,3
10,8,1,0.437153100967407,8.01589202880859,1192.47630596161,"0",0,3,3
10,8,1,0.483218193054199,9.99940299987793,1194.4598171711,"0",1,4,3
10,20,2,0.91579794883728,2.01604294776917,1206.52640914917,"0",2,3,3
10,20,1,0.477066993713379,3.99967193603516,1208.51003813744,"0",0,2,3
10,20,1,0.423105955123901,5.99972295761108,1210.51008915901,"0",0,4,3
10,20,1,0.530801057815552,8.0160961151123,1212.52646207809,"0",2,7,3
10,20,1,0.561576128005981,9.99948906898499,1214.50985503197,"0",1,2,3
10,8,1,0.6509690284729,1.99843597412109,1226.60911202431,"0",1,5,3
10,8,1,0.448578834533691,4.01620602607727,1228.62688302994,"0",2,7,3
10,8,1,0.475246906280518,5.99950981140137,1230.61018705368,"0",1,0,3
10,8,1,0.353223085403442,7.99930286407471,1232.60997915268,"0",1,7,3
10,8,1,0.415105819702148,10.0160310268402,1234.62670707703,"0",2,7,3
10,8,1,0.584902048110962,1.99913001060486,1246.67700815201,"0",0,5,3
10,8,1,0.480763912200928,4.0157790184021,1248.69365811348,"0",2,4,3
10,8,1,0.879563808441162,6.01588416099548,1250.69376301765,"0",2,2,3
10,8,1,0.43212890625,7.99919700622559,1252.6770761013,"0",0,3,3
10,8,1,0.381281137466431,9.99901914596558,1254.67689704895,"0",1,3,3
10,8,1,0.481467008590698,1.99907994270325,1266.72692108154,"0",0,0,3
10,8,1,0.393545866012573,3.99938106536865,1268.72722315788,"0",1,7,3
10,8,1,0.44790506362915,6.01617908477783,1270.74402093887,"0",2,0,3
10,8,1,0.429480791091919,8.01617217063904,1272.74401402473,"0",2,2,3
10,8,1,0.480207920074463,9.99957013130188,1274.72741103172,"0",1,0,3
2,20,1,0.491927146911621,1.99951195716858,1378.89498114586,"0",1,4,4
2,4,1,0.498899936676025,2.01592993736267,1398.9617331028,"0",2,2,4
2,4,1,0.431643009185791,1.99938678741455,1419.01211810112,"0",1,4,4
2,8,1,0.496709108352661,1.99937200546265,1439.06234908104,"0",0,7,4
2,20,1,0.690577030181885,1.99935793876648,1459.1123111248,"0",1,1,4
2,8,1,0.552381992340088,1.99962687492371,1479.16248512268,"0",1,6,4
2,4,1,0.502686977386475,1.99903011322021,1499.21268606186,"0",1,4,4
2,8,1,0.572225093841553,1.99950814247131,1519.26307702065,"0",1,2,4
2,8,1,0.665739059448242,2.01606106758118,1539.32991313934,"0",2,5,4
2,4,1,0.447561025619507,2.01580405235291,1559.39692902565,"0",2,3,4
2,20,1,0.533909797668457,1.99916291236877,1579.4470281601,"0",1,7,4
2,20,1,0.492116928100586,1.99946403503418,1599.49725794792,"0",0,5,4
2,4,1,0.489908933639526,1.99945187568665,1619.54752993584,"0",0,7,4
2,20,1,0.564682006835938,2.01557517051697,1639.6141910553,"0",2,4,4
2,20,1,0.498092889785767,2.01603984832764,1659.68125414848,"0",2,1,4
2,4,1,0.808599948883057,1.99921488761902,1679.73145508766,"0",1,0,4
2,8,1,0.581480026245117,2.0156421661377,1699.79816102982,"0",2,1,4
2,8,1,0.637526035308838,1.99924612045288,1719.84836506844,"0",1,2,4
2,8,1,0.53568696975708,1.99939894676208,1739.89870810509,"0",1,0,4
2,20,1,0.519266128540039,1.99912905693054,1759.94887709618,"0",1,0,4
2,4,1,0.519335985183716,1.99942517280579,1779.99911499023,"0",0,1,4
14,20,1,0.544794082641602,1.99889302253723,1807.46589207649,"0",1,1,5
14,20,1,0.44826602935791,4.01536893844604,1809.4823679924,"0",2,5,5
14,20,1,0.417829990386963,5.99890995025635,1811.46590900421,"0",0,6,5
14,20,1,0.430588006973267,8.01549482345581,1813.48249411583,"0",2,3,5
14,20,1,0.464543104171753,9.99893188476562,1815.46593093872,"0",0,0,5
14,20,1,0.371006011962891,11.9991958141327,1817.46619510651,"0",0,6,5
14,20,1,0.464318037033081,14.015832901001,1819.48283314705,"0",2,3,5
14,20,1,0.846883058547974,2.01526498794556,1827.54908800125,"0",2,6,5
14,20,1,0.483538150787354,3.99915504455566,1829.53297901154,"0",0,3,5
14,20,1,0.541430950164795,5.99847793579102,1831.5323009491,"0",0,4,5
14,20,1,0.565179109573364,8.01551485061646,1833.54933810234,"0",2,2,5
14,20,1,0.502327919006348,9.99916791915894,1835.53299212456,"0",0,3,5
14,20,1,0.413944005966187,12.0158228874207,1837.54964709282,"0",2,7,5
14,20,1,0.504278898239136,14.0159108638763,1839.5497341156,"0",0,7,5
14,4,0,0.319181203842163,0.324620008468628,1845.92473506927,"0",1,6,5
14,8,0,0.401073932647705,0.421410083770752,1850.37209510803,"0",0,3,5
14,8,0,0.297356843948364,0.29915189743042,1854.69987916946,"0",2,1,5
14,4,0,0.291218042373657,0.311153173446655,1859.04508709908,"0",0,7,5
14,8,0,0.258282899856567,0.263011932373047,1863.34724807739,"0",1,1,5
14,20,1,0.498029947280884,2.01539492607117,1869.39956998825,"0",2,0,5
14,20,1,0.466418027877808,3.99903583526611,1871.38321208954,"0",1,7,5
14,20,1,0.514015197753906,6.01567983627319,1873.39985704422,"0",2,6,5
14,20,1,0.598214149475098,8.01568198204041,1875.39985799789,"0",2,7,5
14,20,1,0.434092998504639,9.99934506416321,1877.38352108002,"0",1,6,5
14,20,1,0.547914981842041,11.9993369579315,1879.38351297379,"0",0,0,5
14,20,1,0.423002004623413,13.999382019043,1881.3835580349,"0",0,7,5
14,20,1,0.481800079345703,2.01643991470337,1889.45028805733,"0",2,6,5
14,20,1,0.381086111068726,3.9997820854187,1891.43362903595,"0",1,7,5
14,20,1,0.358519077301025,5.99975299835205,1893.43360114098,"0",1,3,5
14,20,1,0.509577989578247,7.99980497360229,1895.43365216255,"0",0,5,5
14,20,2,0.631838083267212,10.0162680149078,1897.45011496544,"0",2,2,5
14,20,1,0.764150857925415,12.0165629386902,1899.45041012764,"0",2,1,5
14,20,1,0.721040010452271,13.9998691082001,1901.43371701241,"0",0,5,5
14,8,0,0.265627861022949,0.267393112182617,1907.75198411942,"0",2,7,5
14,4,0,0.499395847320557,0.50129508972168,1912.28559303284,"0",2,1,5
14,4,0,0.269048929214478,0.288949012756348,1916.6072499752,"0",0,2,5
14,4,0,0.405717134475708,0.410267114639282,1921.04493808746,"0",1,1,5
14,4,0,0.221384048461914,0.241556882858276,1925.32649898529,"0",0,4,5
14,20,1,0.452057123184204,1.99901390075684,1931.36716413498,"0",1,7,5
14,20,1,0.464664936065674,4.01584196090698,1933.3839931488,"0",2,4,5
14,20,1,0.598342895507812,6.01541709899902,1935.38356804848,"0",2,0,5
14,20,1,0.482023000717163,8.01511907577515,1937.38327002525,"0",2,4,5
14,20,1,0.565126180648804,10.0155880451202,1939.3837389946,"0",2,0,5
14,20,1,0.523683071136475,11.9992430210114,1941.36739397049,"0",1,3,5
14,20,1,0.538257122039795,13.9993939399719,1943.36754512787,"0",1,6,5
14,8,1,0.547111034393311,1.99917507171631,1951.41734099388,"0",1,3,5
14,8,1,0.499037027359009,3.99920701980591,1953.41737294197,"0",1,0,5
14,8,1,0.564519882202148,6.01624011993408,1955.43440508842,"0",2,3,5
14,8,1,0.48173713684082,7.99948000907898,1957.41764712334,"0",1,1,5
14,8,1,0.421926021575928,9.99946904182434,1959.41763496399,"0",0,2,5
14,8,1,0.459114789962769,11.9994671344757,1961.41763401031,"0",0,3,5
14,8,1,0.507834911346436,13.9995269775391,1963.4176940918,"0",0,7,5
14,20,1,0.441846132278442,1.99933409690857,1971.46790194511,"0",0,3,5
14,20,1,0.394214153289795,3.99921011924744,1973.46777915955,"0",0,3,5
14,20,1,0.434388160705566,5.9991180896759,1975.46768593788,"0",0,5,5
14,20,1,0.598225831985474,8.01589107513428,1977.48446011543,"0",2,0,5
14,20,1,0.493428945541382,9.9992401599884,1979.46780800819,"0",0,6,5
14,20,1,0.486543893814087,11.999115228653,1981.46768307686,"0",0,2,5
14,20,2,0.996030807495117,14.0159912109375,1983.48455905914,"0",2,2,5
14,8,0,0.0324709415435791,0.03436279296875,1989.56975913048,"0",2,4,5
14,4,0,0.498539209365845,0.500306129455566,1994.10245704651,"0",2,5,5
14,20,1,0.505272150039673,1.99865913391113,2000.13418102264,"0",0,4,5
14,20,2,0.83110499382019,4.0155930519104,2002.15111494064,"0",2,4,5
14,20,1,0.565374135971069,6.01592206954956,2004.15144515038,"0",2,0,5
14,20,1,0.361922979354858,7.9991090297699,2006.13463115692,"0",1,5,5
14,20,1,0.373428106307983,9.99931311607361,2008.13483595848,"0",1,3,5
14,20,1,0.619807958602905,11.9994089603424,2010.13493108749,"0",0,1,5
14,20,1,0.412544012069702,13.9990429878235,2012.13456511497,"0",0,1,5
14,20,1,0.447708129882812,1.99915504455566,2020.18492102623,"0",1,7,5
14,20,1,0.401612997055054,3.99904298782349,2022.1848089695,"0",1,5,5
14,20,1,0.383407831192017,5.99908304214478,2024.18484902382,"0",1,3,5
14,20,1,0.458673000335693,7.99934196472168,2026.1851079464,"0",0,6,5
14,20,1,0.360819816589355,9.99923706054688,2028.18500208855,"0",0,4,5
14,20,1,0.597935199737549,12.015939950943,2030.20170712471,"0",2,0,5
14,20,1,0.513535976409912,14.0159759521484,2032.20174312592,"0",2,6,5
14,8,0,0.37037992477417,0.375747919082642,2038.62834715843,"0",1,7,5
14,4,0,0.380688905715942,0.382499933242798,2043.05183315277,"0",2,2,5
14,8,0,0.382449150085449,0.384254932403564,2047.47025203705,"0",2,7,5
14,4,0,0.282586097717285,0.284526109695435,2051.78710007668,"0",2,0,5
14,20,1,0.620501041412354,1.99914598464966,2057.81850504875,"0",1,0,5
14,20,1,0.377115964889526,3.99932098388672,2059.81868100166,"0",1,5,5
14,20,1,0.646740913391113,6.01603984832764,2061.83540010452,"0",2,0,5
14,20,1,0.496802091598511,7.99944686889648,2063.81880497932,"0",1,2,5
14,20,1,0.537729024887085,9.99906992912292,2065.81842899323,"0",0,3,5
14,20,1,0.431816816329956,12.0159068107605,2067.83526611328,"0",2,6,5
14,20,1,0.444664001464844,13.9993917942047,2069.81875109673,"0",0,0,5
14,20,2,0.548617839813232,2.01595091819763,2077.88563394547,"0",2,3,5
14,20,1,0.453110218048096,3.99918699264526,2079.86887097359,"0",0,6,5
14,20,1,0.435432910919189,5.99919509887695,2081.86888003349,"0",1,0,5
14,20,1,0.443807125091553,7.99936604499817,2083.86905002594,"0",0,5,5
14,20,1,0.497128009796143,9.99925804138184,2085.868942976,"0",0,2,5
14,20,1,0.589985132217407,11.9992570877075,2087.86894106865,"0",1,1,5
14,20,1,0.518677949905396,13.9990830421448,2089.86876702309,"0",1,6,5
14,8,0,0.266727924346924,0.268529176712036,2096.20400810242,"0",2,0,5
14,4,0,0.269649982452393,0.289645910263062,2100.52622103691,"0",0,0,5
14,8,0,0.20586895942688,0.21028995513916,2104.76365613937,"0",1,4,5
14,4,0,0.230573177337646,0.232343196868896,2109.03576111794,"0",2,1,5
14,8,0,0.145266056060791,0.149091005325317,2113.21920013428,"0",1,2,5
14,20,1,0.49004077911377,1.99924993515015,2119.25265693665,"0",1,3,5
14,20,1,0.529358148574829,4.01592397689819,2121.26933097839,"0",2,3,5
14,20,1,0.458459138870239,5.99925184249878,2123.25265908241,"0",0,4,5
14,20,1,0.440999031066895,7.99930286407471,2125.25271105766,"0",0,6,5
14,20,1,0.525568962097168,9.9992790222168,2127.25268697739,"0",1,6,5
14,20,1,0.392539978027344,11.9994039535522,2129.25281095505,"0",0,4,5
14,20,1,0.551629066467285,13.9986188411713,2131.25202608109,"0",0,5,5
14,20,1,0.532117128372192,2.01588916778564,2139.31950306892,"0",2,6,5
14,20,1,0.475672960281372,3.99906611442566,2141.30268001556,"0",1,4,5
14,20,1,0.631064891815186,6.01577115058899,2143.31938505173,"0",2,6,5
14,20,1,0.447950124740601,8.01592397689819,2145.31953907013,"0",2,4,5
14,20,1,0.442634105682373,9.99903297424316,2147.3026471138,"0",0,2,5
14,20,1,0.414479970932007,11.9994029998779,2149.30301713943,"0",0,5,5
14,20,1,0.397558927536011,13.9991641044617,2151.30277705193,"0",1,4,5
14,4,0,0.381179094314575,0.386466026306152,2157.7401881218,"0",1,6,5
14,8,0,0.29743218421936,0.299219131469727,2162.0697851181,"0",2,2,5
14,4,0,0.132375955581665,0.134188890457153,2166.23816394806,"0",2,0,5
14,20,1,0.480532169342041,2.01587986946106,2172.28658914566,"0",2,1,5
14,20,1,0.476030111312866,3.99895000457764,2174.26965904236,"0",0,5,5
14,20,1,0.505238056182861,5.9986720085144,2176.26938295364,"0",1,0,5
14,20,1,0.379712104797363,7.99900603294373,2178.26971507072,"0",1,3,5
14,20,1,0.403861999511719,9.99923992156982,2180.26995015144,"0",0,5,5
14,20,1,0.402841091156006,11.9992439746857,2182.26995396614,"0",1,7,5
14,20,1,0.36857795715332,13.9991748332977,2184.26988506317,"0",1,7,5
14,4,0,0.264934062957764,0.266716957092285,2190.58765602112,"0",2,1,5
14,8,1,0.495967149734497,1.99903011322021,2196.61985898018,"0",0,1,5
14,8,1,0.581748008728027,4.0157470703125,2198.63657593727,"0",2,6,5
14,8,1,0.362689971923828,5.99934005737305,2200.62016916275,"0",0,1,5
14,8,1,0.387672185897827,7.99948215484619,2202.6203110218,"0",0,7,5
14,8,1,0.602352857589722,9.99943399429321,2204.62026405334,"0",1,0,5
14,8,1,0.63031792640686,11.9988369941711,2206.61966609955,"0",0,5,5
14,8,1,0.536732912063599,13.999263048172,2208.62009096146,"0",1,3,5
14,20,1,0.562011003494263,1.999342918396,2216.67015910149,"0",1,1,5
14,20,1,0.516098976135254,3.99951505661011,2218.67033195496,"0",1,4,5
14,20,1,0.45343017578125,5.99939107894897,2220.67020702362,"0",0,2,5
14,20,1,0.368752956390381,7.99956512451172,2222.67038202286,"0",1,4,5
14,20,1,0.423069000244141,9.99968504905701,2224.67050099373,"0",1,7,5
14,20,1,0.440505027770996,11.999342918396,2226.67015910149,"0",1,1,5
14,20,1,0.518184900283813,13.9996910095215,2228.67050695419,"0",0,2,5
10,20,1,0.751055955886841,1.99930596351624,2243.63715100288,"0",1,2,6
10,20,0,3.06792283058167,3.06795787811279,2244.70580196381,"0",0,0,6
10,8,1,0.532021999359131,2.01559114456177,2254.75384402275,"0",2,4,6
10,8,1,0.408454179763794,3.99919414520264,2256.73744702339,"0",1,3,6
10,8,1,0.364214897155762,5.99890208244324,2258.73715400696,"0",1,7,6
10,8,1,0.501692056655884,7.99900102615356,2260.73725414276,"0",0,4,6
10,8,1,0.596919059753418,10.0156869888306,2262.75394010544,"0",2,3,6
10,4,0,0.315335988998413,0.317147016525269,2273.12196111679,"0",2,4,6
10,8,1,0.512984037399292,1.99993181228638,2283.15439510345,"0",1,5,6
10,8,1,0.448415040969849,4.01663184165955,2285.17109513283,"0",2,3,6
10,8,1,0.747231960296631,6.01657485961914,2287.17103910446,"0",2,2,6
10,8,1,0.481762886047363,8.01642084121704,2289.17088413239,"0",2,7,6
10,8,1,0.488653898239136,9.99992799758911,2291.15439200401,"0",1,0,6
10,20,1,0.516394853591919,1.99910306930542,2303.20451903343,"0",1,1,6
10,20,1,0.444646120071411,3.99895787239075,2305.20437312126,"0",0,2,6
10,20,1,0.514698028564453,6.01575493812561,2307.2211689949,"0",2,4,6
10,20,1,0.584017992019653,7.9989550113678,2309.20436906815,"0",0,0,6
10,20,1,0.44864296913147,9.99924802780151,2311.20466303825,"0",0,0,6
10,4,0,0.627284049987793,0.647336006164551,2321.90301299095,"0",0,6,6
10,4,0,0.195924043655396,0.199229001998901,2330.13811707497,"0",1,5,6
10,4,1,0.447736978530884,2.01590490341187,2340.18840813637,"0",2,4,6
10,4,2,0.847909927368164,4.01585507392883,2342.18835806847,"0",2,0,6
10,4,1,0.529990196228027,6.01565885543823,2344.18816208839,"0",2,3,6
10,4,1,0.516075134277344,7.99857497215271,2346.17107796669,"0",1,1,6
10,4,1,0.524896144866943,9.99857091903687,2348.17107415199,"0",0,3,6
10,8,1,0.468906164169312,1.99959993362427,2360.22209811211,"0",0,0,6
10,8,1,0.521425008773804,3.99930500984192,2362.22180294991,"0",1,2,6
10,8,1,0.433143138885498,5.9990029335022,2364.22150015831,"0",0,4,6
10,8,1,0.378247022628784,7.99921107292175,2366.22170805931,"0",0,4,6
10,8,1,0.414344072341919,9.99918699264526,2368.22168302536,"0",1,4,6
10,8,1,0.480336904525757,2.01576113700867,2380.28865098953,"0",2,2,6
10,8,1,0.447467088699341,3.99853205680847,2382.27142214775,"0",1,1,6
10,8,1,0.448637962341309,6.01562118530273,2384.28851103783,"0",2,6,6
10,8,1,0.431538105010986,8.01560616493225,2386.28849601746,"0",2,1,6
10,8,1,0.664968967437744,10.0158741474152,2388.28876399994,"0",2,1,6
10,20,1,0.472189903259277,1.999018907547,2400.33861994743,"0",0,7,6
10,20,1,0.406535863876343,3.99937295913696,2402.3389749527,"0",0,3,6
10,20,1,0.474360942840576,5.99933099746704,2404.33893299103,"0",1,6,6
10,20,1,0.422966957092285,7.99935603141785,2406.3389570713,"0",1,6,6
10,20,1,0.418144941329956,9.99918293952942,2408.33878397942,"0",1,2,6
10,20,1,0.565080165863037,2.01551699638367,2420.40548300743,"0",2,7,6
10,20,1,0.563191890716553,4.01590204238892,2422.40586900711,"0",2,3,6
10,20,1,0.532359838485718,5.99914884567261,2424.38911414146,"0",1,0,6
10,20,1,0.548030138015747,8.01584601402283,2426.40581202507,"0",2,7,6
10,20,1,0.445804119110107,9.99921798706055,2428.38918495178,"0",0,4,6
10,20,1,0.5154869556427,2.01554203033447,2440.45568299294,"0",2,3,6
10,20,1,0.530503988265991,3.99922800064087,2442.43936896324,"0",1,2,6
10,20,1,0.469101905822754,5.99921894073486,2444.43936109543,"0",0,2,6
10,20,1,0.449490070343018,7.99892902374268,2446.43906998634,"0",0,2,6
10,20,1,0.540803909301758,9.9998140335083,2448.43995499611,"0",0,3,6
10,4,0,0.324732780456543,0.344770908355713,2458.83486199379,"0",0,5,6
10,20,1,0.666285037994385,1.99944281578064,2468.87295913696,"0",0,4,6
10,20,1,0.387481927871704,3.9995448589325,2470.87306213379,"0",0,6,6
10,20,1,0.597693920135498,6.01590585708618,2472.88942313194,"0",2,7,6
10,20,1,0.46058201789856,7.99940085411072,2474.87291693687,"0",0,5,6
10,20,1,0.479177951812744,9.99956393241882,2476.87308096886,"0",0,1,6
10,8,1,0.523782014846802,1.99912595748901,2488.92309713364,"0",1,5,6
10,8,1,0.463195085525513,4.01595306396484,2490.93992304802,"0",2,7,6
10,8,1,0.468610048294067,5.99935507774353,2492.9233250618,"0",1,0,6
10,8,1,0.456927061080933,7.9991500377655,2494.92312002182,"0",0,0,6
10,8,1,0.458805084228516,9.99926209449768,2496.92323303223,"0",1,1,6
10,8,1,0.665266990661621,2.01549696922302,2508.98949193954,"0",2,3,6
10,8,1,0.67006516456604,3.9993839263916,2510.97338104248,"0",0,2,6
10,8,1,0.453369140625,5.9994261264801,2512.97342300415,"0",0,6,6
10,8,1,0.406544923782349,7.99922299385071,2514.97321796417,"0",1,5,6
10,8,1,0.405926942825317,9.99945497512817,2516.97345209122,"0",0,6,6
10,4,0,0.254459857940674,0.259874820709229,2527.28415894508,"0",1,6,6
10,20,1,0.523885011672974,1.99921298027039,2537.32371902466,"0",0,1,6
10,20,1,0.480072021484375,4.01579284667969,2539.34030008316,"0",2,2,6
10,20,1,0.480246067047119,6.01565098762512,2541.34015703201,"0",2,1,6
10,20,1,0.388131856918335,7.9992938041687,2543.32380008698,"0",1,4,6
10,20,1,0.698103904724121,10.0158908367157,2545.34039616585,"0",2,3,6
10,8,1,0.446213960647583,1.99883818626404,2557.39017105103,"0",0,6,6
10,8,1,0.480237007141113,4.0158371925354,2559.40717101097,"0",2,0,6
10,8,2,0.463161945343018,5.99904203414917,2561.39037513733,"0",0,0,6
10,8,1,0.547054052352905,7.99905204772949,2563.39038515091,"0",0,7,6
10,8,1,0.542962074279785,9.99922204017639,2565.39055514336,"0",1,7,6
10,4,0,0.218474149703979,0.224194049835205,2575.66577506065,"0",1,7,6
10,8,1,0.507256984710693,1.99920105934143,2585.69062900543,"0",1,1,6
10,8,1,0.547865152359009,4.01614212989807,2587.70757007599,"0",2,1,6
10,8,1,0.680521965026855,6.01592993736267,2589.7073571682,"0",2,7,6
10,8,1,0.510869979858398,7.99939513206482,2591.69082403183,"0",0,4,6
10,8,1,0.443608999252319,9.99923992156982,2593.6906671524,"0",1,0,6
10,20,1,0.930462121963501,2.01595091819763,2605.75787115097,"0",2,3,6
10,20,1,0.471484184265137,3.9992208480835,2607.74114012718,"0",1,4,6
10,20,1,0.514626026153564,6.01580286026001,2609.75772309303,"0",2,4,6
10,20,1,0.440105199813843,7.99926686286926,2611.74118614197,"0",1,6,6
10,20,1,0.456252813339233,9.99901390075684,2613.74093413353,"0",0,6,6
10,4,0,0.0463790893554688,0.0517427921295166,2623.84371614456,"0",1,7,6
10,4,0,0.27607798576355,0.279381990432739,2632.15480995178,"0",1,5,6
10,8,1,0.461467027664185,1.99933290481567,2642.19139504433,"0",1,5,6
10,8,1,0.50647497177124,3.99913597106934,2644.19119715691,"0",1,0,6
10,8,1,0.664253950119019,5.99903607368469,2646.1910970211,"0",0,3,6
10,8,1,0.482867956161499,7.99923396110535,2648.19129514694,"0",1,4,6
10,8,1,0.545070171356201,9.99947309494019,2650.19153404236,"0",0,4,6
