"Handling","Reward","Choice","Task.RT","Choice.RT","Experiment.Time","Trial.Outcome","Task.Type","Task.Setup","Block"
10,20,1,0.654237031936646,1.99866199493408,9.04258394241333,"0",1,4,1
10,20,1,0.611823797225952,4.01499199867249,11.0589139461517,"0",2,5,1
10,20,1,0.570554971694946,5.99871516227722,13.0426368713379,"0",1,5,1
10,20,2,0.848288059234619,8.01537108421326,15.0592939853668,"0",2,2,1
10,20,2,1.00010991096497,9.99876809120178,17.0426898002625,"0",0,4,1
10,4,1,0.511985063552856,1.99900007247925,27.0759918689728,"0",1,7,1
10,4,1,0.69374418258667,3.99891710281372,29.0759079456329,"0",1,0,1
10,4,1,0.644577026367188,5.99920105934143,31.0761938095093,"0",1,1,1
10,4,1,0.79789400100708,8.01597189903259,33.0929639339447,"0",2,1,1
10,4,1,0.431759119033813,10.0154819488525,35.0924739837646,"0",2,4,1
10,8,2,1.00009703636169,1.99912595748901,47.1427459716797,"0",0,4,1
10,8,1,0.467683792114258,3.9990439414978,49.1426639556885,"0",0,5,1
10,8,1,0.412409067153931,5.99931192398071,51.1429309844971,"0",1,3,1
10,8,1,0.647974967956543,8.01599311828613,53.1596119403839,"0",2,0,1
10,8,1,0.60237193107605,9.9993109703064,55.1429309844971,"0",1,0,1
10,4,0,0.482491016387939,0.485364198684692,65.6954369544983,"0",1,0,1
10,20,1,0.497862100601196,2.01589918136597,75.7429308891296,"0",2,6,1
10,20,1,0.896727085113525,4.0154139995575,77.7424459457397,"0",2,6,1
10,20,1,0.78156304359436,6.01561498641968,79.7426469326019,"0",2,5,1
10,20,1,0.509200096130371,7.99888706207275,81.725919008255,"0",0,3,1
10,20,1,0.430665016174316,10.015820980072,83.7428538799286,"0",2,5,1
10,8,1,0.58827805519104,1.99868512153625,95.7924008369446,"0",1,6,1
10,8,1,0.636400938034058,3.99901700019836,97.7927329540253,"0",0,1,1
10,8,1,0.665240049362183,6.01557898521423,99.8092949390411,"0",2,2,1
10,8,1,0.402083873748779,7.9991090297699,101.792825937271,"0",1,4,1
10,8,1,0.418567180633545,9.9991409778595,103.792857885361,"0",0,3,1
10,4,1,0.593362092971802,1.99922013282776,115.842660903931,"0",1,5,1
10,4,1,0.449902057647705,3.99922108650208,117.842661857605,"0",1,1,1
10,4,1,0.481772899627686,6.01574397087097,119.8591837883,"0",2,2,1
10,4,2,0.480627059936523,8.01610803604126,121.859548807144,"0",2,3,1
10,4,1,0.448491096496582,9.99842405319214,123.841863870621,"0",0,0,1
10,20,1,0.515085935592651,1.99920606613159,135.892737865448,"0",1,4,1
10,20,1,0.4812331199646,3.99902701377869,137.892558813095,"0",1,6,1
10,20,1,0.418310880661011,5.99888396263123,139.892417907715,"0",0,3,1
10,20,1,0.464939117431641,8.01573610305786,141.909268856049,"0",2,2,1
10,20,1,0.409013986587524,9.99938607215881,143.89291882515,"0",1,5,1
10,8,1,0.500070095062256,1.99929189682007,155.942822933197,"0",1,4,1
10,8,2,0.69737982749939,4.01600909233093,157.959539890289,"0",2,7,1
10,8,1,0.688361883163452,5.99925088882446,159.942782878876,"0",0,1,1
10,8,1,0.764173030853271,8.01555395126343,161.959085941315,"0",2,5,1
10,8,1,0.472255945205688,9.99908590316772,163.942616939545,"0",1,6,1
10,20,1,0.614404916763306,1.99912405014038,175.992818832397,"0",1,0,1
10,20,1,0.66581916809082,3.9991250038147,177.992819786072,"0",0,1,1
10,20,1,0.96456503868103,6.01560306549072,180.009296894073,"0",2,5,1
10,20,1,0.748373031616211,8.01560497283936,182.009298801422,"0",2,5,1
10,20,1,0.501210927963257,9.99916005134583,183.992853879929,"0",0,3,1
10,4,1,0.648707866668701,1.9989550113678,196.042637825012,"0",0,6,1
10,4,1,0.584887981414795,3.99851894378662,198.04220199585,"0",1,4,1
10,4,1,0.664699077606201,6.01575207710266,200.059434890747,"0",2,6,1
10,4,1,0.618227958679199,7.99908399581909,202.042766809464,"0",0,1,1
10,4,1,0.488871097564697,9.99883103370667,204.042513847351,"0",0,3,1
10,8,1,0.689027070999146,1.99935293197632,216.092242956161,"0",1,6,1
10,8,1,0.713941097259521,3.99958300590515,218.092472791672,"0",0,4,1
10,8,1,0.530549049377441,5.9995539188385,220.092443943024,"0",0,4,1
10,8,1,0.547709941864014,8.016597032547,222.109487771988,"0",2,4,1
10,8,2,0.814621210098267,10.0162711143494,224.109160900116,"0",2,5,1
10,20,1,0.562649011611938,1.99876999855042,236.158850908279,"0",0,7,1
10,20,1,0.528666973114014,3.99932885169983,238.159409999847,"0",1,2,1
10,20,1,0.665215015411377,6.01583099365234,240.175911903381,"0",2,5,1
10,20,1,0.470059871673584,7.99917697906494,242.159257888794,"0",1,5,1
10,20,1,0.440249919891357,9.99939894676208,244.159480810165,"0",1,5,1
10,4,0,0.367193937301636,0.37006402015686,254.580214977264,"0",1,0,1
10,4,0,0.52018404006958,0.525585174560547,263.135910987854,"0",1,6,1
10,20,1,0.508426904678345,1.99903917312622,273.175901889801,"0",0,0,1
10,20,1,0.531713008880615,3.99905014038086,275.175911903381,"0",1,3,1
10,20,1,0.446568965911865,5.99925208091736,277.176115989685,"0",0,5,1
10,20,1,0.529887914657593,8.01571106910706,279.192573785782,"0",2,1,1
10,20,1,0.56653094291687,9.99930596351624,281.17616891861,"0",1,2,1
10,8,1,0.530983209609985,2.01592516899109,293.242822885513,"0",2,7,1
10,8,1,0.698369026184082,3.99927997589111,295.226177930832,"0",0,7,1
10,8,1,0.475688934326172,5.99899005889893,297.225886821747,"0",1,6,1
10,8,1,0.409802913665771,7.99822807312012,299.225124835968,"0",1,1,1
10,8,1,0.799242973327637,10.0158500671387,301.242747783661,"0",2,6,1
10,8,1,0.532071828842163,1.99869108200073,313.292524814606,"0",1,0,1
10,8,1,0.597831964492798,4.01534199714661,315.309176921844,"0",2,4,1
10,8,1,0.760875940322876,5.99893522262573,317.292770862579,"0",0,7,1
10,8,1,0.613641977310181,8.01569509506226,319.309529781342,"0",2,2,1
10,8,1,0.57850193977356,9.99868512153625,321.292520999908,"0",0,6,1
10,8,1,0.781308174133301,2.01598596572876,333.359512805939,"0",2,6,1
10,8,1,0.440272092819214,3.99920201301575,335.342728853226,"0",1,7,1
10,8,1,0.38623309135437,5.99894905090332,337.342476844788,"0",1,7,1
10,8,1,0.664561986923218,8.01505994796753,339.358586788177,"0",2,2,1
10,8,1,0.590142965316772,9.99850296974182,341.342029809952,"0",1,6,1
10,20,1,0.534375905990601,1.99880409240723,353.392795801163,"0",0,4,1
10,20,1,0.486289978027344,3.99879002571106,355.392781972885,"0",1,6,1
10,20,1,0.781291961669922,6.01526594161987,357.40925693512,"0",2,3,1
10,20,1,0.515333890914917,8.0152599811554,359.409250974655,"0",2,6,1
10,20,1,0.646410942077637,9.99855208396912,361.39254283905,"0",0,4,1
10,4,0,0.676855087280273,0.679789066314697,372.122995853424,"0",1,3,1
10,8,1,0.673165798187256,1.99891591072083,382.159213781357,"0",0,2,1
10,8,1,0.608745813369751,3.9991250038147,384.159423828125,"0",0,4,1
10,8,1,0.697870016098022,6.01558184623718,386.175879955292,"0",2,6,1
10,8,1,0.480937004089355,8.01559090614319,388.175888776779,"0",2,4,1
10,8,1,0.508791208267212,9.99911284446716,390.159411907196,"0",1,3,1
10,4,0,0.349772930145264,0.35149884223938,400.561671972275,"0",2,2,1
10,20,1,0.665399074554443,2.01641082763672,410.609802961349,"0",2,3,1
10,20,1,0.441567897796631,3.99946999549866,412.592861890793,"0",0,6,1
10,20,1,0.731153011322021,6.01585388183594,414.60924577713,"0",2,6,1
10,20,1,0.515787124633789,7.99897789955139,416.592369794846,"0",1,5,1
10,20,1,0.410383224487305,9.99915981292725,418.59255194664,"0",1,5,1
2,20,1,0.511969089508057,1.99857592582703,437.425677776337,"0",0,6,2
2,4,1,0.633536100387573,1.99920988082886,457.475862979889,"0",0,2,2
2,8,1,0.747366905212402,1.99927186965942,477.526073932648,"0",0,7,2
2,20,1,0.498266220092773,2.01608109474182,497.592934846878,"0",2,7,2
2,8,1,0.492480039596558,1.99889302253723,517.642528772354,"0",1,3,2
2,4,1,0.558990955352783,1.9989709854126,537.692490816116,"0",1,0,2
2,20,2,0.865470170974731,2.01609516143799,557.759621858597,"0",2,6,2
2,8,1,0.816569089889526,1.99863815307617,575.792111873627,"0",0,7,2
2,8,1,0.525480031967163,1.9995219707489,595.842670917511,"0",0,0,2
2,4,2,0.899677038192749,2.0167670249939,615.909530878067,"0",2,7,2
2,20,1,0.780696868896484,2.01639008522034,633.959586858749,"0",2,1,2
2,4,1,0.588506937026978,1.99915719032288,654.009276866913,"0",1,5,2
2,4,1,0.527234792709351,1.99916791915894,674.059096813202,"0",1,7,2
2,20,2,0.73146915435791,2.0159900188446,694.126232862473,"0",2,7,2
2,8,1,0.535156011581421,1.99910712242126,712.159077882767,"0",1,7,2
2,8,2,0.997143030166626,2.01552391052246,732.225719928741,"0",2,3,2
2,4,1,0.473668098449707,1.99914789199829,750.259284973145,"0",1,3,2
2,20,2,0.832226991653442,2.01566696166992,770.325650930405,"0",2,2,2
2,20,1,0.564618110656738,1.99872994422913,788.359047889709,"0",1,4,2
2,4,1,0.713013887405396,1.99937200546265,808.409212827682,"0",0,5,2
2,4,1,0.492832183837891,1.99903607368469,828.459026813507,"0",1,5,2
2,20,1,0.583662986755371,1.99961113929749,848.509405851364,"0",0,3,2
14,20,2,0.949522018432617,2.01649904251099,874.926045894623,"0",2,3,3
14,20,1,0.563256025314331,4.01596403121948,876.925510883331,"0",2,5,3
14,20,1,0.639514923095703,5.99947285652161,878.909019947052,"0",0,1,3
14,20,1,0.520241975784302,7.99945187568665,880.908998966217,"0",1,7,3
14,20,1,0.639025926589966,9.99966597557068,882.909213781357,"0",0,1,3
14,20,1,0.665142059326172,12.0163068771362,884.925854921341,"0",2,1,3
14,20,1,0.622826099395752,13.9997670650482,886.909314870834,"0",1,2,3
14,8,1,0.593854904174805,1.99914288520813,894.95902299881,"0",0,7,3
14,8,1,0.765238046646118,4.01598191261292,896.975862979889,"0",2,7,3
14,8,1,0.697751045227051,6.01578187942505,898.975662946701,"0",2,6,3
14,8,1,0.698688983917236,8.01583003997803,900.975710868835,"0",2,6,3
14,8,1,0.731878042221069,10.0160789489746,902.975959777832,"0",2,0,3
14,8,1,0.588537216186523,11.9993579387665,904.959239959717,"0",1,0,3
14,8,1,0.664288997650146,14.0159919261932,906.975873947144,"0",2,5,3
14,20,1,0.548821926116943,2.01545310020447,915.042153835297,"0",2,5,3
14,20,1,0.502929925918579,3.99900317192078,917.025703907013,"0",0,3,3
14,20,2,0.663789987564087,6.01565003395081,919.042351007462,"0",2,2,3
14,20,1,0.590711832046509,7.99913096427917,921.02583193779,"0",0,7,3
14,20,1,0.595375061035156,9.99921703338623,923.025918006897,"0",1,6,3
14,20,1,0.648043870925903,12.0158610343933,925.042562961578,"0",2,1,3
14,20,1,0.581850051879883,13.9988811016083,927.0255818367,"0",1,1,3
14,4,0,0.58276104927063,0.584475994110107,933.660952806473,"0",2,5,3
14,4,0,0.514600038528442,0.534066915512085,938.227672815323,"0",0,3,3
14,8,1,0.521733999252319,1.99937200546265,944.25927400589,"0",0,3,3
14,8,1,0.484009981155396,3.99898409843445,946.258886814117,"0",1,1,3
14,8,1,0.686393022537231,5.99911713600159,948.25901889801,"0",0,2,3
14,8,1,0.496157884597778,7.99919319152832,950.259095907211,"0",1,4,3
14,8,1,0.538345098495483,9.99931001663208,952.259213924408,"0",0,6,3
14,8,1,0.479560136795044,11.9991409778595,954.259043931961,"0",0,0,3
14,8,1,0.473208904266357,13.9993290901184,956.259231805801,"0",1,0,3
14,4,0,0.31683611869812,0.337071895599365,962.646870851517,"0",0,3,3
14,20,1,0.525485038757324,1.99924182891846,968.675962924957,"0",0,5,3
14,20,1,0.49794602394104,3.9991250038147,970.675845861435,"0",1,5,3
14,20,1,0.445393085479736,5.99854397773743,972.675264835358,"0",0,2,3
14,20,1,0.688632011413574,7.99896097183228,974.675680875778,"0",1,3,3
14,20,2,0.747359991073608,10.0152070522308,976.691927909851,"0",2,4,3
14,20,1,0.603022813796997,11.9989328384399,978.675653934479,"0",0,4,3
14,20,1,0.551248788833618,13.9991679191589,980.675889968872,"0",1,2,3
14,4,0,0.273796081542969,0.293319940567017,987.019998788834,"0",0,4,3
14,8,1,0.523817777633667,1.99946808815002,993.059171915054,"0",0,4,3
14,8,1,0.473373174667358,3.99931693077087,995.059020996094,"0",0,2,3
14,8,2,0.830268859863281,6.01609587669373,997.075798988342,"0",2,3,3
14,8,1,0.573608160018921,7.99953508377075,999.059239864349,"0",0,5,3
14,8,1,0.798314809799194,10.0158069133759,1001.0755109787,"0",2,7,3
14,8,1,0.831634998321533,12.016165971756,1003.07587099075,"0",2,2,3
14,8,2,0.647983074188232,14.0161600112915,1005.07586479187,"0",2,0,3
14,8,1,0.57297682762146,1.99936890602112,1011.10919594765,"0",1,2,3
14,8,1,0.63093900680542,4.01580905914307,1013.12563490868,"0",2,0,3
14,8,1,0.489819049835205,5.99933695793152,1015.10916399956,"0",1,7,3
14,8,1,0.579923868179321,8.01606106758118,1017.12588787079,"0",2,0,3
14,8,1,0.498509883880615,9.99911785125732,1019.10894393921,"0",1,2,3
14,8,1,0.714172840118408,12.0158948898315,1021.12572097778,"0",2,5,3
14,8,1,0.475471973419189,13.9991550445557,1023.10898089409,"0",1,1,3
14,20,2,0.660917043685913,1.99997091293335,1031.15911698341,"0",0,1,3
14,20,1,0.510280847549438,4.00005984306335,1033.15920591354,"0",1,6,3
14,20,1,0.582197904586792,6.00005984306335,1035.15920591354,"0",0,0,3
14,20,1,0.476018905639648,7.99947190284729,1037.15861678123,"0",0,3,3
14,20,1,0.63260293006897,10.0165798664093,1039.17572498322,"0",2,4,3
14,20,1,0.503035068511963,11.9998729228973,1041.15901684761,"0",1,0,3
14,20,1,0.520576953887939,14.0000648498535,1043.15921092033,"0",0,6,3
14,4,0,0.316310167312622,0.318031072616577,1049.52780389786,"0",2,5,3
14,4,0,0.251446962356567,0.254869937896729,1053.81493496895,"0",1,2,3
14,20,1,0.615610837936401,2.01529717445374,1059.85860586166,"0",2,5,3
14,20,1,0.680608987808228,4.01587200164795,1061.85918092728,"0",2,4,3
14,20,1,0.465329885482788,5.99922108650208,1063.84253096581,"0",0,2,3
14,20,1,0.485241174697876,7.99921917915344,1065.84252882004,"0",1,0,3
14,20,1,0.506213903427124,9.99897813796997,1067.84228682518,"0",1,2,3
14,20,1,0.405395984649658,11.9989941120148,1069.84230279922,"0",1,0,3
14,20,1,0.564669132232666,14.0156280994415,1071.85893797874,"0",2,2,3
14,8,1,0.439773082733154,1.99914383888245,1079.90897393227,"0",0,3,3
14,8,1,0.44032621383667,3.99938988685608,1081.90921998024,"0",1,1,3
14,8,1,0.417866945266724,5.99935293197632,1083.90918278694,"0",0,6,3
14,8,1,0.580291032791138,8.01602983474731,1085.92586088181,"0",2,4,3
14,8,1,0.550591945648193,9.99946999549866,1087.90929985046,"0",0,7,3
14,8,1,0.498366832733154,11.9993369579315,1089.90916800499,"0",0,7,3
14,8,1,0.469103097915649,13.9991278648376,1091.90895795822,"0",1,2,3
14,8,1,0.539974927902222,1.99928593635559,1099.9591319561,"0",1,3,3
14,8,1,0.425984859466553,3.9991250038147,1101.95897078514,"0",0,5,3
14,8,1,0.427248001098633,5.99930095672607,1103.95914697647,"0",1,4,3
14,8,1,0.447818040847778,7.99928092956543,1105.95912694931,"0",0,1,3
14,8,1,0.498595952987671,9.99937510490417,1107.95922279358,"0",0,5,3
14,8,1,0.378334045410156,11.999370098114,1109.95921587944,"0",0,0,3
14,8,1,0.442329883575439,13.9990730285645,1111.95891880989,"0",1,3,3
14,20,2,0.423412084579468,1.99889993667603,1120.00891494751,"0",1,1,3
14,20,1,0.514811038970947,4.01571106910706,1122.02572584152,"0",2,0,3
14,20,1,0.743720054626465,5.99925398826599,1124.0092689991,"0",1,4,3
14,20,1,0.535780906677246,7.99893712997437,1126.00895190239,"0",1,0,3
14,20,1,0.528990983963013,9.99887895584106,1128.00889396667,"0",1,4,3
14,20,1,0.648263931274414,12.0158069133759,1130.02582287788,"0",2,0,3
14,20,1,0.69636607170105,14.0156450271606,1132.02565979958,"0",2,6,3
14,8,1,0.488476037979126,1.99951696395874,1140.07588100433,"0",0,0,3
14,8,1,0.640972852706909,3.99925804138184,1142.07562184334,"0",1,6,3
14,8,1,0.527215003967285,5.99928903579712,1144.07565379143,"0",0,7,3
14,8,1,0.488785982131958,7.99951505661011,1146.07588100433,"0",1,2,3
14,8,1,0.69560694694519,10.0155680179596,1148.09193277359,"0",2,1,3
14,8,1,0.587234020233154,11.9992790222168,1150.07564377785,"0",1,0,3
14,8,1,0.589009046554565,13.9995679855347,1152.07593393326,"0",1,5,3
14,20,1,0.494860172271729,2.00042605400085,1160.12577080727,"0",0,3,3
14,20,1,0.54524302482605,4.00046706199646,1162.12581181526,"0",0,5,3
14,20,1,0.673655986785889,6.00029301643372,1164.12563681602,"0",0,7,3
14,20,1,0.449273109436035,8.00043702125549,1166.12578082085,"0",1,3,3
14,20,1,0.897536039352417,10.0004589557648,1168.12580394745,"0",2,7,3
14,20,1,0.501836776733398,12.0003039836884,1170.12564778328,"0",0,5,3
14,20,1,0.624149799346924,14.0005021095276,1172.12584590912,"0",1,2,3
14,4,0,0.582205057144165,0.583924055099487,1178.76037788391,"0",2,1,3
14,4,0,0.56511116027832,0.567145109176636,1183.36063194275,"0",2,1,3
14,20,1,0.494769811630249,1.99892616271973,1189.39227795601,"0",1,7,3
14,20,1,0.413913011550903,3.99923396110535,1191.39258694649,"0",1,7,3
14,20,1,0.931124210357666,6.01580309867859,1193.40915679932,"0",2,4,3
14,20,1,0.681183099746704,7.99921107292175,1195.39256286621,"0",1,1,3
14,20,1,0.547207832336426,9.99894309043884,1197.3922958374,"0",0,4,3
14,20,1,0.551599025726318,11.9992020130157,1199.3925549984,"0",1,6,3
14,20,1,0.512995958328247,13.9989550113678,1201.39230799675,"0",1,3,3
14,8,1,0.485164165496826,1.99883484840393,1209.4921579361,"0",0,2,3
14,8,1,0.696751117706299,4.01574397087097,1211.50906777382,"0",2,7,3
14,8,1,0.461448907852173,5.9989378452301,1213.4922618866,"0",1,7,3
14,8,1,0.435086965560913,7.99913096427917,1215.49245500565,"0",1,7,3
14,8,1,0.459161043167114,9.99913692474365,1217.49246096611,"0",0,5,3
14,8,1,0.58156681060791,12.0156009197235,1219.50892400742,"0",2,5,3
14,8,1,0.46729302406311,13.9989540576935,1221.49227690697,"0",1,0,3
14,8,1,0.458461999893188,1.999018907547,1229.54226899147,"0",0,5,3
14,8,1,0.547676086425781,4.01568794250488,1231.55893683434,"0",2,1,3
14,8,1,0.504464149475098,5.99857091903687,1233.54182100296,"0",1,1,3
14,8,1,0.47686505317688,7.99923491477966,1235.5424849987,"0",1,0,3
14,8,1,0.464689970016479,9.99924302101135,1237.54249382019,"0",1,6,3
14,8,1,0.446387052536011,11.9993028640747,1239.542552948,"0",0,3,3
14,8,1,0.429961919784546,13.99880194664,1241.54205179214,"0",0,7,3
14,4,0,0.376511096954346,0.39647388458252,1247.98961281776,"0",0,3,3
14,20,1,0.482187032699585,1.99928283691406,1254.0257999897,"0",0,5,3
14,20,1,0.4651939868927,3.9992368221283,1256.02575397491,"0",1,7,3
14,20,1,0.4739990234375,5.9993588924408,1258.02587580681,"0",0,0,3
14,20,1,0.646792888641357,8.01590394973755,1260.04242181778,"0",2,5,3
14,20,1,0.465575218200684,9.99929594993591,1262.0258128643,"0",0,0,3
14,20,1,0.461286067962646,11.9992837905884,1264.02580094337,"0",1,3,3
14,20,1,0.591818809509277,13.9992969036102,1266.02581381798,"0",0,4,3
14,8,1,0.479515790939331,1.99907803535461,1274.07581400871,"0",1,4,3
14,8,1,0.463899850845337,4.01551008224487,1276.09224390984,"0",2,4,3
14,8,1,0.493122100830078,5.99845504760742,1278.07518982887,"0",1,1,3
14,8,1,0.465493202209473,8.01574110984802,1280.09247589111,"0",2,5,3
14,8,1,0.591192007064819,9.99808812141418,1282.07482290268,"0",0,7,3
14,8,1,0.473996162414551,11.9988090991974,1284.07554388046,"0",1,3,3
14,8,1,0.378784894943237,13.9990179538727,1286.07575297356,"0",1,7,3
10,8,1,0.574510812759399,1.99893283843994,1330.72559595108,"0",1,3,4
10,8,1,0.669533014297485,3.99876880645752,1332.7254319191,"0",0,3,4
10,8,1,0.431594133377075,6.015704870224,1334.74236798286,"0",2,5,4
10,8,1,0.599153995513916,7.99893498420715,1336.72559785843,"0",0,7,4
10,8,1,0.543442964553833,9.99889087677002,1338.72555398941,"0",1,0,4
10,20,1,0.698895931243896,2.01593279838562,1350.79219794273,"0",2,1,4
10,20,1,0.434113025665283,3.99931287765503,1352.77557778358,"0",1,7,4
10,20,1,0.510950088500977,5.99959778785706,1354.77586293221,"0",1,1,4
10,20,1,0.457788228988647,7.99960994720459,1356.77587485313,"0",0,6,4
10,20,1,0.913760900497437,10.0161838531494,1358.79244995117,"0",2,5,4
10,8,1,0.548887014389038,1.99919390678406,1370.84242677689,"0",1,3,4
10,8,1,0.477960109710693,3.99919581413269,1372.84242987633,"0",0,3,4
10,8,1,0.462563991546631,5.99921989440918,1374.8424539566,"0",1,0,4
10,8,1,0.438874006271362,7.9989709854126,1376.84220385551,"0",1,5,4
10,8,1,0.963081836700439,10.0151858329773,1378.85841798782,"0",2,4,4
10,20,1,0.714921951293945,2.01590895652771,1390.92561078072,"0",2,7,4
10,20,1,0.482679128646851,3.99931001663208,1392.90901279449,"0",1,0,4
10,20,1,0.44707989692688,5.99933195114136,1394.90903496742,"0",1,0,4
10,20,1,0.427335023880005,7.99938607215881,1396.90908885002,"0",0,6,4
10,20,1,0.419598817825317,9.99879813194275,1398.90850090981,"0",0,0,4
10,4,0,0.333889961242676,0.353570938110352,1409.31345677376,"0",0,1,4
10,4,1,0.499843120574951,1.99899411201477,1419.34224486351,"0",1,0,4
10,4,1,0.56562614440918,4.01582407951355,1421.35907387733,"0",2,2,4
10,4,1,0.469089984893799,5.99897289276123,1423.342222929,"0",1,2,4
10,4,1,0.575096845626831,7.99898791313171,1425.34223794937,"0",0,4,4
10,4,1,0.598716020584106,10.0158259868622,1427.35907697678,"0",2,5,4
10,4,0,0.274493217468262,0.279912948608398,1437.68982791901,"0",1,7,4
10,8,1,0.551425933837891,1.99944996833801,1447.72577285767,"0",1,2,4
10,8,2,0.913935899734497,4.01594281196594,1449.74226593971,"0",2,2,4
10,8,1,0.847364187240601,6.01587796211243,1451.74220085144,"0",2,5,4
10,8,1,0.50595498085022,7.9992299079895,1453.72555279732,"0",0,3,4
10,8,1,0.520349025726318,9.99954581260681,1455.72586894035,"0",1,5,4
10,4,0,0.411251068115234,0.430462837219238,1466.2062997818,"0",0,0,4
10,8,1,0.632250070571899,2.01542115211487,1476.25857591629,"0",2,2,4
10,8,2,0.746841907501221,4.01589202880859,1478.25904798508,"0",2,2,4
10,8,1,0.648195028305054,6.01557302474976,1480.25872778893,"0",2,7,4
10,8,1,0.517589092254639,7.99908208847046,1482.24223685265,"0",0,7,4
10,8,1,0.434700012207031,9.9990770816803,1484.24223089218,"0",1,5,4
10,20,1,0.584010124206543,2.00001811981201,1496.2918548584,"0",0,2,4
10,20,1,0.565648794174194,4.00025606155396,1498.29209280014,"0",2,7,4
10,20,1,0.494939088821411,6.00058007240295,1500.29241681099,"0",0,4,4
10,20,1,0.474702835083008,8.00024509429932,1502.29208183289,"0",1,1,4
10,20,1,0.466499805450439,10.0003550052643,1504.29219198227,"0",0,1,4
10,20,1,0.698234081268311,2.01575398445129,1516.35884785652,"0",2,6,4
10,20,1,0.463354110717773,3.99877882003784,1518.34187293053,"0",0,6,4
10,20,1,0.39828896522522,5.99915981292725,1520.34225392342,"0",1,2,4
10,20,1,0.406736135482788,7.99919080734253,1522.34228491783,"0",0,6,4
10,20,1,0.625717163085938,9.99897980690002,1524.34207391739,"0",0,7,4
10,4,0,0.199651002883911,0.201497077941895,1534.59452295303,"0",2,1,4
10,4,0,0.658673048019409,0.662371158599854,1543.28917193413,"0",1,2,4
10,20,1,0.475921154022217,1.99967885017395,1553.32510995865,"0",1,2,4
10,20,1,0.862919092178345,3.9992458820343,1555.32467579842,"0",0,5,4
10,20,1,0.391870975494385,6.00002098083496,1557.32545185089,"0",0,0,4
10,20,1,0.997119903564453,8.00034594535828,1559.32577681541,"0",2,3,4
10,20,1,0.466497898101807,10.0000729560852,1561.32550382614,"0",0,7,4
10,8,1,0.515218019485474,2.01585984230042,1573.39244389534,"0",2,4,4
10,8,1,0.662591934204102,3.99863290786743,1575.37521600723,"0",0,1,4
10,8,1,0.681940078735352,6.01575899124146,1577.39234280586,"0",2,6,4
10,8,1,0.398792028427124,7.99917197227478,1579.37575483322,"0",0,1,4
10,8,2,0.647495031356812,10.0156388282776,1581.39222192764,"0",2,3,4
10,8,1,0.781712770462036,2.01556301116943,1593.45880794525,"0",2,1,4
10,8,1,0.48821496963501,3.99913287162781,1595.44237995148,"0",0,2,4
10,8,1,0.499330997467041,5.99885392189026,1597.44209980965,"0",1,2,4
10,8,1,0.431235074996948,7.9991409778595,1599.44238877296,"0",1,3,4
10,8,1,0.391961812973022,9.99893689155579,1601.44218277931,"0",1,2,4
10,20,1,0.581707000732422,2.01590895652771,1613.50911593437,"0",2,4,4
10,20,1,0.536102056503296,3.99918913841248,1615.49239587784,"0",0,5,4
10,20,1,0.52207612991333,5.99916410446167,1617.49237179756,"0",1,4,4
10,20,1,0.464565992355347,7.99901413917542,1619.49222183228,"0",1,7,4
10,20,1,0.485996007919312,9.99890208244324,1621.49210882187,"0",1,2,4
10,8,1,0.492563009262085,1.99891400337219,1633.54216384888,"0",1,2,4
10,8,1,0.442859888076782,3.99899697303772,1635.54224681854,"0",0,0,4
10,8,2,0.414994955062866,6.01562690734863,1637.55887699127,"0",2,3,4
10,8,1,0.444933891296387,7.99894499778748,1639.54219484329,"0",1,2,4
10,8,1,0.438107967376709,9.9991090297699,1641.54235982895,"0",0,5,4
10,4,0,0.530651092529297,0.53248119354248,1652.12572693825,"0",2,4,4
10,20,1,0.483404159545898,1.99912095069885,1662.15897798538,"0",1,6,4
10,20,1,0.427402019500732,3.99916005134583,1664.15901684761,"0",1,0,4
10,20,1,0.42095685005188,5.99897599220276,1666.15883278847,"0",1,0,4
10,20,1,0.502197027206421,7.9989550113678,1668.15881299973,"0",0,4,4
10,20,1,0.457653999328613,9.99895405769348,1670.15881085396,"0",1,5,4
10,4,0,0.308984994888306,0.32900595664978,1680.53858184814,"0",0,5,4
10,20,1,0.51235818862915,1.9992790222168,1690.57548284531,"0",1,0,4
10,20,1,0.512490034103394,4.01616287231445,1692.59236693382,"0",2,1,4
10,20,1,0.454231023788452,5.9994969367981,1694.57570195198,"0",1,3,4
10,20,1,0.467590808868408,7.99955892562866,1696.57576298714,"0",1,3,4
10,20,1,0.4116530418396,9.99922299385071,1698.57542681694,"0",1,4,4
10,8,1,0.480206966400146,1.99921083450317,1710.62531995773,"0",0,0,4
10,8,1,0.764029979705811,4.0161988735199,1712.64230895042,"0",2,4,4
10,8,1,0.647853136062622,6.01604580879211,1714.6421558857,"0",2,7,4
10,8,1,0.461941957473755,7.99935984611511,1716.62546896935,"0",0,0,4
10,8,1,0.381855010986328,9.99959588050842,1718.62570500374,"0",0,0,4
10,20,1,0.764432907104492,2.01563811302185,1730.69210982323,"0",2,7,4
10,20,1,0.444222927093506,3.99923205375671,1732.67570400238,"0",1,1,4
10,20,1,0.58024001121521,6.01573300361633,1734.69220495224,"0",2,6,4
10,20,1,0.6474769115448,8.01587319374084,1736.69234585762,"0",2,1,4
10,20,1,0.448954105377197,9.99901008605957,1738.67548084259,"0",1,0,4
2,20,1,0.507040977478027,1.99866700172424,1756.87535095215,"0",1,3,5
2,8,1,0.631984949111938,2.01591420173645,1776.94211888313,"0",2,7,5
2,4,1,0.589699029922485,1.99952816963196,1796.99241185188,"0",0,5,5
2,8,1,0.655769824981689,1.99886417388916,1817.04207086563,"0",1,1,5
2,4,1,0.908231973648071,1.9989287853241,1837.09207391739,"0",1,2,5
2,20,1,0.545511960983276,1.99912905693054,1857.14227390289,"0",1,7,5
2,4,1,4.23370099067688,4.5343189239502,1879.72711396217,"0",2,7,5
2,20,1,0.781818151473999,1.99897694587708,1899.77729392052,"0",0,7,5
2,4,1,0.628602981567383,1.99913477897644,1919.82729291916,"0",1,0,5
2,8,1,0.512516021728516,1.9991979598999,1939.87748789787,"0",1,1,5
2,20,2,0.816264152526855,2.0162570476532,1959.94390583038,"0",2,2,5
2,8,1,0.45311713218689,1.99916005134583,1977.9775018692,"0",1,5,5
2,4,1,0.831935882568359,2.01593685150146,1998.04422497749,"0",2,0,5
2,4,1,0.51905083656311,1.9993851184845,2018.09410881996,"0",0,0,5
2,8,1,0.594938039779663,1.9992458820343,2038.14423179626,"0",0,1,5
2,20,1,0.598648071289062,2.01583003997803,2058.21064686775,"0",2,6,5
2,20,1,0.699016094207764,1.99917793273926,2078.26089286804,"0",1,6,5
2,8,1,0.633118867874146,1.99894285202026,2098.31058287621,"0",0,1,5
2,4,1,0.782222032546997,2.01587080955505,2118.3775229454,"0",2,0,5
2,20,1,0.514182090759277,2.00043201446533,2138.42741394043,"0",2,2,5
2,8,2,0.815512895584106,2.01625490188599,2158.49419093132,"0",2,2,5
14,20,1,0.631829977035522,1.9989640712738,2183.01073598862,"0",1,0,6
14,20,1,0.848515033721924,4.01560306549072,2185.02737593651,"0",2,4,6
14,20,1,0.56511116027832,6.01573014259338,2187.02750277519,"0",2,4,6
14,20,1,0.715153217315674,8.01568603515625,2189.0274579525,"0",2,2,6
14,20,1,0.931352853775024,10.0150620937347,2191.02683377266,"0",2,1,6
14,20,1,0.63128399848938,12.0156991481781,2193.02747178078,"0",2,6,6
14,20,1,0.496091842651367,13.9989900588989,2195.01076197624,"0",0,5,6
14,20,1,0.526213884353638,1.99912405014038,2203.06077194214,"0",1,0,6
14,20,1,0.67913293838501,4.01520299911499,2205.07684993744,"0",2,2,6
14,20,1,0.462293148040771,5.99914717674255,2207.06079387665,"0",1,0,6
14,20,1,0.452750205993652,7.99912118911743,2209.0607688427,"0",1,5,6
14,20,1,0.446781873703003,9.99910998344421,2211.06075692177,"0",0,5,6
14,20,1,0.501281976699829,11.9989070892334,2213.06055283546,"0",0,6,6
14,20,1,0.614659070968628,14.0157630443573,2215.07741093636,"0",2,2,6
14,8,1,0.551345109939575,1.9996030330658,2223.12740278244,"0",1,5,6
14,8,1,0.864065885543823,4.01565504074097,2225.14345288277,"0",2,1,6
14,8,1,0.474512815475464,5.9996120929718,2227.12741184235,"0",0,5,6
14,8,2,0.614672899246216,8.01595401763916,2229.14375281334,"0",2,5,6
14,8,1,0.677221059799194,9.99941897392273,2231.12721800804,"0",1,3,6
14,8,1,0.414505004882812,11.9996380805969,2233.12743782997,"0",1,5,6
14,8,1,0.715120792388916,14.0161080360413,2235.14390683174,"0",2,3,6
14,8,1,0.547026872634888,1.99911904335022,2243.19385886192,"0",1,5,6
14,8,1,0.425184011459351,3.99885106086731,2245.19359087944,"0",1,3,6
14,8,2,0.630981922149658,6.01545000076294,2247.21018981934,"0",2,4,6
14,8,1,0.517009973526001,7.99936008453369,2249.19410085678,"0",0,1,6
14,8,1,0.432982921600342,9.99921989440918,2251.1939599514,"0",1,3,6
14,8,1,0.581871032714844,12.0158689022064,2253.2106089592,"0",2,3,6
14,8,1,0.431913137435913,13.9991340637207,2255.19387388229,"0",1,2,6
14,4,0,0.299365043640137,0.301074028015137,2261.54589700699,"0",2,0,6
14,4,0,0.298710107803345,0.300432920455933,2265.87888884544,"0",2,6,6
14,4,0,0.337216138839722,0.357019186019897,2270.26885294914,"0",0,7,6
14,20,2,0.997154951095581,2.01524901390076,2276.31022191048,"0",2,4,6
14,20,2,0.631900072097778,4.01554799079895,2278.3105199337,"0",2,5,6
14,4,0,0.281687021255493,0.283406972885132,2282.62817978859,"0",2,0,6
14,8,1,0.608278036117554,1.99927711486816,2288.66074490547,"0",1,7,6
14,8,1,0.571646928787231,3.99898600578308,2290.66045284271,"0",1,4,6
14,8,1,0.396944046020508,5.99935412406921,2292.66082191467,"0",1,4,6
14,8,1,0.425343036651611,7.99927306175232,2294.66074180603,"0",0,2,6
14,8,1,0.404010057449341,9.99929594993591,2296.66076493263,"0",1,1,6
14,8,1,0.415128946304321,11.9995799064636,2298.66104888916,"0",1,6,6
14,8,1,0.407856941223145,13.9992289543152,2300.66069793701,"0",0,2,6
14,8,1,0.517635107040405,1.99881196022034,2308.71041488647,"0",0,7,6
14,8,1,0.447167158126831,4.01593780517578,2310.72754192352,"0",2,2,6
14,8,1,0.481568098068237,5.99919295310974,2312.71079683304,"0",1,2,6
14,8,1,0.424795150756836,7.99887990951538,2314.71048378944,"0",0,0,6
14,8,1,0.502120971679688,9.99898886680603,2316.71059179306,"0",0,1,6
14,8,1,0.632073879241943,12.0158109664917,2318.72741580009,"0",2,7,6
14,8,1,0.44477391242981,13.9989240169525,2320.71052789688,"0",0,6,6
14,20,1,0.472832918167114,1.99947500228882,2328.76047182083,"0",1,6,6
14,20,1,0.430170059204102,3.99917507171631,2330.76017189026,"0",0,4,6
14,20,1,0.499912977218628,5.99982190132141,2332.76081991196,"0",1,5,6
14,20,1,0.663372039794922,8.01591491699219,2334.77691197395,"0",2,7,6
14,20,1,0.387124061584473,9.99978089332581,2336.76077795029,"0",1,5,6
14,20,1,0.564833164215088,12.0162069797516,2338.77720379829,"0",2,4,6
14,20,1,0.432904958724976,13.9996929168701,2340.76068997383,"0",0,0,6
14,8,1,0.460592985153198,1.99868106842041,2348.81015491486,"0",0,3,6
14,8,1,0.374929904937744,3.99874091148376,2350.81021499634,"0",0,3,6
14,8,1,0.453840017318726,5.99893498420715,2352.81040978432,"0",1,0,6
14,8,1,0.475076198577881,7.99899196624756,2354.81046581268,"0",1,5,6
14,8,1,0.466233968734741,9.99920892715454,2356.81068277359,"0",0,7,6
14,8,1,0.535831928253174,11.9989700317383,2358.81044387817,"0",1,6,6
14,8,2,0.43178915977478,14.0156788825989,2360.82715296745,"0",2,1,6
14,4,0,0.265657186508179,0.267369031906128,2367.14544487,"0",2,1,6
14,20,2,0.964121103286743,2.01567792892456,2373.19384288788,"0",2,1,6
14,20,1,0.572822093963623,3.99905776977539,2375.17722392082,"0",1,1,6
14,20,1,0.402914047241211,5.99900794029236,2377.17717385292,"0",1,0,6
14,20,1,0.964501142501831,8.01593780517578,2379.19410395622,"0",2,7,6
14,20,1,0.445405960083008,9.9992208480835,2381.17738699913,"0",1,3,6
14,20,1,0.469945192337036,11.9990148544312,2383.17718100548,"0",1,6,6
14,20,1,0.485164880752563,13.9989688396454,2385.17713594437,"0",1,6,6
14,20,1,0.444153785705566,1.99893188476562,2393.227175951,"0",0,0,6
14,20,1,0.482897996902466,3.99886798858643,2395.22711181641,"0",1,1,6
14,20,1,0.461843967437744,5.99923300743103,2397.22747683525,"0",0,1,6
14,20,1,0.452640056610107,7.99916005134583,2399.22740483284,"0",1,2,6
14,20,1,0.465292930603027,9.99910092353821,2401.22734594345,"0",0,7,6
14,20,1,0.417577028274536,11.9989459514618,2403.22718977928,"0",0,5,6
14,20,2,0.830394983291626,14.0155889987946,2405.24383282661,"0",2,3,6
14,4,0,1.23561096191406,1.23565196990967,2412.52958583832,"0",1,2,6
14,8,1,0.475106000900269,1.99907302856445,2418.5604197979,"0",1,4,6
14,8,1,0.439040899276733,3.99903392791748,2420.56038188934,"0",1,4,6
14,8,1,0.409646987915039,5.99925708770752,2422.56060385704,"0",1,1,6
14,8,1,0.487633943557739,7.99929904937744,2424.56064581871,"0",1,4,6
14,8,1,0.497899055480957,10.0165109634399,2426.57785797119,"0",2,1,6
14,8,1,0.631103992462158,12.0150039196014,2428.57635092735,"0",2,4,6
14,8,1,0.415331125259399,13.998829126358,2430.56017589569,"0",1,0,6
14,8,1,0.650285005569458,2.00057506561279,2438.61051487923,"0",2,4,6
14,8,1,0.437808036804199,4.0004870891571,2440.61042785645,"0",1,7,6
14,8,1,0.409044981002808,6.00080800056458,2442.6107468605,"0",1,5,6
14,8,1,0.401199102401733,8.00068497657776,2444.61062479019,"0",1,3,6
14,8,1,0.848213911056519,10.0006070137024,2446.61054682732,"0",2,3,6
14,8,1,0.454777002334595,12.0001900196075,2448.61012887955,"0",0,6,6
14,8,1,0.798413991928101,14.0005929470062,2450.61053299904,"0",2,7,6
14,20,1,0.408437967300415,1.99885416030884,2458.66011285782,"0",0,0,6
14,20,1,0.415765047073364,3.99948000907898,2460.66073894501,"0",1,2,6
14,20,1,0.598550081253052,6.01588320732117,2462.67714190483,"0",2,7,6
14,20,1,0.491257190704346,7.99923300743103,2464.66049194336,"0",1,0,6
14,20,1,0.563570022583008,10.0160710811615,2466.67732977867,"0",2,4,6
14,20,1,0.42849588394165,11.9992671012878,2468.66052484512,"0",1,7,6
14,20,1,0.497542858123779,14.0159690380096,2470.67722797394,"0",2,0,6
14,4,0,0.314100027084351,0.315826892852783,2477.04405283928,"0",2,7,6
14,4,0,0.209303140640259,0.214382171630859,2481.29279994965,"0",1,4,6
14,20,2,0.997328042984009,2.01571607589722,2487.34382581711,"0",2,0,6
14,20,1,0.639141082763672,3.99926114082336,2489.32737278938,"0",1,3,6
14,20,1,0.509690999984741,5.99927020072937,2491.32738089561,"0",0,4,6
14,20,1,0.420144081115723,7.99885106086731,2493.32696199417,"0",0,0,6
14,20,1,0.614090919494629,10.0157270431519,2495.34383797646,"0",2,0,6
14,20,1,0.49512505531311,11.9992761611938,2497.32738685608,"0",0,0,6
14,20,1,0.613031148910522,14.0155801773071,2499.34369087219,"0",2,4,6
14,8,1,0.600549936294556,1.99892687797546,2507.39384078979,"0",1,2,6
14,8,1,0.664892911911011,4.0158839225769,2509.4107978344,"0",2,6,6
14,8,2,0.415632963180542,5.9991238117218,2511.39403891563,"0",1,5,6
14,8,1,0.348543882369995,7.99914288520813,2513.39405679703,"0",0,6,6
14,8,1,0.42084002494812,9.99913787841797,2515.39405179024,"0",1,5,6
14,8,1,0.464448928833008,12.0157859325409,2517.41070079803,"0",2,6,6
14,8,1,0.51439094543457,13.9985167980194,2519.39343094826,"0",1,6,6
14,4,0,0.519217967987061,0.538666009902954,2525.98350596428,"0",0,0,6
14,8,1,0.615315914154053,2.01624202728271,2532.02747988701,"0",2,1,6
14,8,1,0.513596057891846,4.01622891426086,2534.02746796608,"0",2,7,6
14,8,1,0.550698041915894,5.99925589561462,2536.01049590111,"0",1,5,6
14,8,1,0.45380711555481,7.99917006492615,2538.01040887833,"0",1,2,6
14,8,1,0.498080015182495,10.0159859657288,2540.02722477913,"0",2,6,6
14,8,1,0.729665994644165,12.0161080360413,2542.02734899521,"0",2,1,6
14,8,2,0.731827020645142,14.0161099433899,2544.02734994888,"0",2,1,6
14,20,1,0.530159950256348,1.99957394599915,2552.0774037838,"0",1,6,6
14,20,1,0.40904712677002,3.99955105781555,2554.07738184929,"0",1,3,6
14,20,1,0.507240056991577,5.99948191642761,2556.07731294632,"0",1,2,6
14,20,1,0.880487203598022,8.01633596420288,2558.094165802,"0",2,2,6
14,20,1,0.45415997505188,9.99948501586914,2560.07731580734,"0",0,4,6
14,20,1,0.423689126968384,11.9995210170746,2562.07735180855,"0",0,2,6
14,20,2,0.931237936019897,14.0162119865417,2564.09404277802,"0",2,7,6
14,4,0,0.285130977630615,0.28958797454834,2570.43447685242,"0",1,4,6
14,20,1,0.520956993103027,1.99936604499817,2576.46075296402,"0",1,0,6
14,20,1,0.448168992996216,3.99930715560913,2578.46069478989,"0",1,6,6
14,20,1,0.419600963592529,5.99916315078735,2580.46054983139,"0",1,3,6
14,20,1,0.430529832839966,7.99939513206482,2582.46078181267,"0",0,5,6
14,20,1,0.447588920593262,9.99936008453369,2584.46074795723,"0",1,3,6
14,20,1,0.476117849349976,11.9991202354431,2586.46050691605,"0",0,5,6
14,20,1,0.477159023284912,13.9993321895599,2588.46071887016,"0",1,7,6
