Handling,Reward,Choice,Task.RT,Choice.RT,Experiment.Time,Trial.Outcome,Task.Type,Task.Setup,Block
14,8,1,0.647319078,2.01641798,9.071336985,0,2,3,1
14,8,1,0.394958973,3.999512911,11.05443192,0,1,7,1
14,8,1,0.626753092,5.999569893,13.0544889,0,0,6,1
14,8,1,0.513797045,8.016281843,15.07120109,0,2,0,1
14,8,1,0.813395977,9.999195814,17.05411506,0,0,5,1
14,8,1,0.43165493,12.01638389,19.07130289,0,2,6,1
14,8,1,0.547851086,14.01645684,21.07137609,0,2,1,1
14,20,1,0.651988983,1.999076128,29.12157297,0,0,6,1
14,20,1,0.462749004,3.999057055,31.1215539,0,1,4,1
14,20,1,0.428521156,5.999171019,33.1216681,0,0,3,1
14,20,1,0.381155968,8.015810013,35.13830709,0,2,5,1
14,20,2,0.398445129,10.01588106,37.13837695,0,2,6,1
14,20,1,0.443521023,11.99927497,39.12177205,0,0,4,1
14,20,1,0.59749794,14.01600695,41.13850307,0,2,3,1
14,4,0,0.138875008,0.160173893,47.34984589,0,0,0,1
14,8,1,0.514584064,2.015945911,53.40581608,0,2,1,1
14,8,1,0.447984934,4.015532017,55.40540195,0,2,5,1
14,8,1,0.431751966,6.015721083,57.40559006,0,2,2,1
14,8,1,0.617714882,7.999098063,59.38896799,0,1,6,1
14,8,1,0.556529045,9.999149084,61.38901901,0,0,5,1
14,8,1,0.70984292,11.99916697,63.38903689,0,1,2,1
14,8,1,0.490729094,13.99921799,65.38908792,0,1,2,1
14,20,1,0.523290157,1.999024153,73.43941998,0,1,5,1
14,20,1,0.604009151,3.998939037,75.43933511,0,0,4,1
14,20,1,0.828472853,5.99902606,77.43942189,0,0,1,1
14,20,1,0.616657972,7.999024153,79.43941998,0,1,4,1
14,20,1,0.527673006,9.999063969,81.43945909,0,0,6,1
14,20,1,0.503958941,11.99914908,83.43954396,0,0,6,1
14,20,1,0.449243069,13.99916697,85.43956208,0,1,0,1
14,4,1,0.605144024,1.99902916,93.48977399,0,0,5,1
14,4,1,0.42869997,3.999062061,95.48980689,0,1,6,1
14,4,1,0.751376867,5.999176025,97.48992109,0,0,7,1
14,4,1,0.360309124,7.999202013,99.48994589,0,1,3,1
14,4,1,0.459213972,9.999241114,101.4899859,0,0,1,1
14,4,1,0.415614128,11.99927711,103.4900219,0,1,3,1
14,4,1,0.386447191,13.99934506,105.4900899,0,1,4,1
14,8,2,0.997029066,2.015594006,113.556953,0,2,3,1
14,8,1,0.481483936,3.998971939,115.5403309,0,1,1,1
14,8,1,0.74793601,6.015693903,117.5570531,0,2,4,1
14,8,1,0.371179104,7.999109983,119.5404689,0,1,3,1
14,8,1,0.554966927,9.999119997,121.5404789,0,0,7,1
14,8,1,0.457031965,11.99914193,123.5404999,0,1,2,1
14,8,1,0.5852139,13.99917603,125.540534,0,0,0,1
14,20,1,0.48396492,1.99892807,133.5907359,0,1,4,1
14,20,1,0.429661036,3.999011993,135.5908201,0,1,7,1
14,20,2,0.463673115,6.015691042,137.6074979,0,2,5,1
14,20,1,0.41384697,7.998765945,139.590574,0,1,2,1
14,20,1,0.435983181,9.999171972,141.5909801,0,0,6,1
14,20,1,0.714506865,12.01585913,143.607667,0,2,7,1
14,20,1,0.459825993,13.99925208,145.5910599,0,1,3,1
14,8,1,0.480845928,1.999171972,153.641238,0,1,3,1
14,8,1,0.865166903,4.0159688,155.658035,0,2,7,1
14,8,1,0.412402868,5.999264956,157.64133,0,0,7,1
14,8,1,0.488143921,7.999336958,159.641403,0,0,7,1
14,8,1,0.63369894,9.999436855,161.6415019,0,0,6,1
14,8,1,0.531675816,12.01609182,163.6581581,0,2,1,1
14,8,1,0.477678061,13.99948597,165.641551,0,0,0,1
14,4,0,0.247872829,0.249756813,171.9425669,0,2,7,1
14,20,1,0.637209177,2.00000596,177.9751329,0,1,0,1
14,20,1,0.480731964,4.000098944,179.9752259,0,2,7,1
14,20,1,0.417968035,6.000152826,181.97528,0,1,1,1
14,20,2,0.515039921,8.000185966,183.9753129,0,2,3,1
14,20,1,0.372910023,10.00024581,185.975373,0,1,1,1
14,20,2,0.564059973,12.00028396,187.9754109,0,2,2,1
14,4,0,0.252394199,0.272813082,192.282829,0,0,0,1
14,4,0,0.345845938,0.351230145,196.6613791,0,1,6,1
14,20,1,0.62451005,1.998925924,202.6924191,0,1,6,1
14,20,1,0.441359997,3.999017,204.6925099,0,1,2,1
14,20,2,0.447634935,6.015746117,206.7092381,0,2,0,1
14,20,1,0.468955994,7.999098063,208.692591,0,0,6,1
14,20,1,0.630306959,10.01588106,210.709373,0,2,2,1
14,20,1,0.59753108,12.0158999,212.709393,0,2,6,1
14,20,1,0.456073999,13.99922705,214.692719,0,0,1,1
14,4,0,0.247709036,0.268776178,221.0128241,0,0,6,1
14,20,1,0.520847082,1.998602152,227.042743,0,0,7,1
14,20,1,0.434106112,3.998964071,229.0431039,0,1,6,1
14,20,1,0.482985973,5.999015093,231.0431559,0,1,6,1
14,20,2,0.447743893,8.015761137,233.059902,0,2,1,1
14,20,1,0.406599045,9.999094009,235.0432339,0,0,4,1
14,20,1,0.495785952,11.9991591,237.0432999,0,1,2,1
14,20,1,0.47044301,13.99924517,239.043386,0,0,6,1
14,8,1,0.831968069,2.015974045,247.1106479,0,2,2,1
14,8,1,0.400860071,3.998942137,249.093616,0,1,0,1
14,8,1,0.414963007,6.015645981,251.1103201,0,2,7,1
14,8,1,0.488311052,7.999047041,253.0937209,0,0,7,1
14,8,1,0.373511076,9.999057055,255.0937309,0,1,2,1
14,8,1,0.350542784,11.99912691,257.093801,0,1,5,1
14,8,1,0.541578054,13.99918699,259.0938599,0,0,2,1
14,8,1,0.493489027,1.999249935,267.1440279,0,0,6,1
14,8,1,0.480695009,4.015945911,269.1607239,0,2,0,1
14,8,1,0.547599077,6.016049862,271.1608279,0,2,6,1
14,8,1,0.365052938,8.016030788,273.160809,0,2,0,1
14,8,1,0.464388132,9.999436855,275.1442151,0,0,7,1
14,8,1,0.420845985,11.99949694,277.144274,0,1,6,1
14,8,1,0.396529913,13.99951386,279.1442919,0,1,3,1
14,8,1,0.522418976,1.998932123,287.194562,0,1,1,1
14,8,1,0.369127989,3.99893117,289.1945601,0,1,0,1
14,8,1,0.363847971,5.998998165,291.194628,0,1,0,1
14,8,1,0.459149837,7.999068975,293.194699,0,0,4,1
14,8,1,0.730890989,10.01567698,295.2113061,0,2,0,1
14,8,1,0.697053909,12.01583695,297.211467,0,2,7,1
14,8,1,0.412441969,13.9991591,299.1947889,0,0,1,1
14,20,1,0.46461606,2.015662909,307.2617259,0,2,1,1
14,20,1,0.440330982,3.999018908,309.2450809,0,0,1,1
14,20,1,0.510416985,5.999042988,311.245106,0,0,2,1
14,20,1,0.431587934,8.015763998,313.261827,0,2,4,1
14,20,1,0.498068094,10.01581597,315.261879,0,2,0,1
14,20,1,0.398036957,12.01585984,317.2619231,0,2,6,1
14,20,1,0.434338093,13.99923396,319.245296,0,0,1,1
14,20,1,0.467826128,1.999374151,327.295516,0,1,7,1
14,20,1,0.461193085,3.999437094,329.295578,0,0,0,1
14,20,1,0.365833044,5.999467134,331.295609,0,1,4,1
14,20,1,0.458899021,7.99950695,333.2956481,0,1,2,1
14,20,1,0.530930996,10.01618004,335.3123219,0,2,2,1
14,20,2,0.56507802,12.01630402,337.3124459,0,2,2,1
14,20,1,0.518413067,14.00008607,339.2962279,0,0,4,1
14,8,0,0.615394115,0.617182016,345.964174,0,2,4,1
14,4,0,0.624439955,0.627717972,350.6248429,0,1,5,1
14,4,0,0.677561045,0.697915077,355.361448,0,0,3,1
14,20,1,0.539323092,1.999251842,361.3963411,0,0,4,1
14,20,1,0.455155849,3.99928689,363.3963759,0,0,4,1
14,20,1,0.405342817,5.999051809,365.3961411,0,1,7,1
14,20,1,0.425668955,7.999388933,367.3964779,0,1,2,1
14,20,1,0.345197916,9.999441862,369.3965311,0,1,5,1
14,20,1,0.403789997,11.99949098,371.39658,0,1,0,1
14,20,1,0.437469006,13.99962187,373.3967109,0,0,6,1
14,20,1,0.648743153,2.016171932,381.4639709,0,2,1,1
14,20,2,0.331847191,4.01580286,383.463603,0,2,1,1
14,20,1,0.478384972,5.999146938,385.4469471,0,0,1,1
14,20,1,0.831423044,8.015837908,387.4636381,0,2,7,1
14,20,1,0.562932014,10.01592588,389.463726,0,2,3,1
14,20,1,0.437936068,11.99932694,391.4471271,0,1,3,1
14,20,1,0.93174386,14.01598406,393.463784,0,2,3,1
14,4,0,0.387315989,0.390225172,399.90521,0,1,3,1
14,8,1,0.520699024,1.998961926,405.9307799,0,1,1,1
14,8,2,0.648372889,4.01570487,407.9475229,0,2,2,1
14,8,1,0.420432091,5.999062777,409.930881,0,1,2,1
14,8,1,0.394802094,7.999354839,411.931174,0,1,7,1
14,8,1,0.404304981,9.999312878,413.9311309,0,1,7,1
14,8,1,0.528164148,11.99919486,415.9310131,0,0,2,1
14,8,1,0.515166998,14.01591897,417.947737,0,2,2,1
2,4,1,0.65834713,1.999425888,431.964761,0,1,2,2
2,8,1,0.599692106,1.999273062,452.0152159,0,0,0,2
2,20,1,0.72330904,1.99889493,472.0654399,0,0,2,2
2,8,1,0.542709827,1.998889923,492.116183,0,0,1,2
2,20,1,0.815310001,2.015706062,512.1833699,0,2,1,2
2,4,1,0.535890818,1.999662161,532.233814,0,1,6,2
2,8,1,0.514940023,2.015583992,552.3009779,0,2,4,2
2,4,1,0.457443953,1.998739958,572.3514121,0,1,4,2
2,20,1,0.598036051,1.999247074,592.401896,0,1,1,2
2,8,1,0.514989138,2.015960932,612.4690659,0,2,5,2
2,4,1,0.579519033,1.999319077,632.519815,0,0,6,2
2,20,1,0.765555859,2.01590991,652.586729,0,2,3,2
2,4,1,0.594017029,1.999047041,672.637162,0,0,1,2
2,8,1,0.531276941,2.015614986,692.7043691,0,2,2,2
2,20,1,0.839817047,1.998872995,712.7547779,0,1,2,2
2,4,1,0.455398083,1.998910189,732.8052781,0,0,6,2
2,8,1,0.599505901,2.016360044,752.8722789,0,2,2,2
2,20,1,0.537697077,1.998980045,772.922936,0,0,0,2
2,8,1,0.631071091,1.999017954,792.97333,0,1,2,2
2,20,1,0.520267963,1.999042988,813.0238509,0,1,0,2
2,8,1,0.684939861,2.0001719,833.0742829,0,1,4,2
10,20,1,0.504925966,1.998986006,859.1582971,0,0,3,3
10,20,1,0.548386812,4.015665054,861.1749749,0,2,3,3
10,20,1,0.451187134,5.999049187,863.1583591,0,0,0,3
10,20,1,0.530864,8.015802145,865.175113,0,2,1,3
10,20,2,0.681656122,10.01587415,867.175185,0,2,3,3
10,8,1,0.560462952,1.998899937,879.225419,0,0,1,3
10,8,1,0.447082996,3.998924971,881.2254441,0,1,7,3
10,8,1,0.514750004,5.999006987,883.2255261,0,1,1,3
10,8,1,0.36430192,7.999083042,885.2256019,0,1,5,3
10,8,1,0.430179834,9.999089956,887.2256091,0,0,1,3
10,20,2,0.865616083,2.01594615,899.292604,0,2,2,3
10,20,1,0.443131924,3.999293089,901.2759509,0,0,2,3
10,20,1,0.385175943,5.999341965,903.276001,0,1,4,3
10,20,1,0.460808992,7.99938798,905.276046,0,0,1,3
10,20,1,0.402758121,9.999444008,907.2761021,0,1,7,3
10,4,0,0.282471895,0.284379005,917.6115611,0,2,6,3
10,4,1,0.532207012,2.015949011,927.6599269,0,2,0,3
10,4,1,0.464254856,4.016018867,929.659996,0,2,6,3
10,4,1,0.433173895,5.999356031,931.643332,0,0,0,3
10,4,1,0.48449707,7.999451876,933.6434281,0,0,3,3
10,4,1,0.355193138,9.999490976,935.6434679,0,1,4,3
10,8,1,0.562939882,2.01553297,947.7103851,0,2,2,3
10,8,1,0.466248035,4.015606165,949.710459,0,2,0,3
10,8,1,0.535239935,5.998969078,951.6938219,0,1,1,3
10,8,1,0.413422108,8.015724182,953.710577,0,2,4,3
10,8,1,0.475607872,9.999061108,955.6939139,0,0,6,3
10,8,1,0.564432859,2.015563965,967.7609169,0,2,3,3
10,8,1,0.537755013,3.998936892,969.7442899,0,0,0,3
10,8,1,0.44710207,5.998986959,971.7443399,0,1,4,3
10,8,2,0.731326103,8.015707016,973.761059,0,2,7,3
10,8,1,0.480978012,10.01576591,975.7611189,0,2,5,3
10,4,0,0.45402503,0.457491875,986.2698641,0,1,2,3
10,20,1,0.528589964,1.998988867,996.294934,0,0,3,3
10,20,1,0.515054941,4.015702009,998.3116469,0,2,0,3
10,20,1,0.361185074,5.999055862,1000.295001,0,1,4,3
10,20,1,0.43198204,7.999125004,1002.29507,0,1,0,3
10,20,1,0.338587999,9.999172926,1004.295118,0,1,5,3
10,4,0,0.382805109,0.384572029,1014.73096,0,2,6,3
10,8,2,0.805850983,1.99899292,1024.762299,0,0,7,3
10,8,1,0.664405823,4.015659094,1026.778964,0,2,7,3
10,8,1,0.416012049,5.999123096,1028.762429,0,1,7,3
10,8,1,0.470215082,7.999157906,1030.762463,0,0,3,3
10,8,1,0.494713068,9.999150991,1032.762457,0,0,4,3
10,20,1,0.489989042,1.998942852,1044.812719,0,1,4,3
10,20,1,0.616180897,3.999054909,1046.812831,0,0,4,3
10,20,1,0.46875,5.999122858,1048.812899,0,0,5,3
10,20,1,0.830106974,8.015764952,1050.829541,0,2,2,3
10,20,1,0.51153183,9.999192953,1052.812969,0,1,1,3
10,8,1,0.463561058,1.998955011,1064.863247,0,1,3,3
10,8,1,0.681494951,4.015706062,1066.879999,0,2,0,3
10,8,1,0.515403986,5.999066114,1068.863359,0,1,1,3
10,8,1,0.44797492,7.999064922,1070.863358,0,1,6,3
10,8,1,0.340108156,9.999151945,1072.863445,0,1,4,3
10,20,1,0.63185811,2.015558004,1084.930471,0,2,0,3
10,20,1,0.651639938,3.998832941,1086.913745,0,0,2,3
10,20,1,0.54146409,5.998895884,1088.913808,0,1,1,3
10,20,1,0.381313086,7.998955965,1090.913868,0,1,4,3
10,20,1,0.688196898,9.998757839,1092.91367,0,0,7,3
10,4,0,0.362016916,0.366902113,1103.331706,0,1,4,3
10,20,1,0.663830996,2.015103102,1113.380806,0,2,4,3
10,20,1,0.464667082,4.015314102,1115.381017,0,2,3,3
10,20,1,0.502898932,5.998533964,1117.364237,0,0,1,3
10,20,1,0.371610165,7.99883008,1119.364533,0,1,5,3
10,20,1,0.364174843,10.01512003,1121.380824,0,2,2,3
10,4,0,0.282270908,0.284162045,1131.716546,0,2,0,3
10,8,1,0.477945089,2.000530958,1141.748525,0,1,4,3
10,8,1,0.356896162,4.000488043,1143.748483,0,1,5,3
10,8,1,0.479674101,6.000317097,1145.748312,0,0,0,3
10,8,1,0.439790964,7.999814987,1147.747809,0,1,6,3
10,8,1,0.399025917,10.00047588,1149.748471,0,2,5,3
10,8,1,0.513738871,2.016320944,1161.816184,0,2,3,3
10,8,1,0.411051989,3.998440981,1163.798304,0,0,3,3
10,8,1,0.366556883,5.998912096,1165.798774,0,0,3,3
10,8,1,0.358644009,7.999441147,1167.799303,0,1,4,3
10,8,1,0.605885983,9.998604059,1169.798466,0,0,7,3
10,8,1,0.560363054,1.99954915,1181.849979,0,1,0,3
10,8,1,0.546725988,4.015707016,1183.866136,0,2,5,3
10,8,1,0.631249905,6.015797138,1185.866226,0,0,2,3
10,8,1,0.415070057,8.01584506,1187.866274,0,2,5,3
10,8,1,0.382296085,9.999204159,1189.849633,0,0,3,3
10,20,1,0.572958946,1.998703003,1201.899577,0,0,5,3
10,20,2,0.59651804,4.01572299,1203.916598,0,2,1,3
10,20,1,0.462829828,5.999154091,1205.900029,0,1,0,3
10,20,1,0.541563988,7.999161005,1207.900036,0,0,7,3
10,20,1,0.433470011,9.999238014,1209.900113,0,1,3,3
10,4,0,0.282798052,0.303143024,1220.254583,0,0,2,3
10,4,0,0.524168968,0.544619083,1228.829556,0,0,4,3
10,20,1,0.414803028,1.998963118,1238.867445,0,1,5,3
10,20,1,0.517452002,3.999078035,1240.867561,0,0,7,3
10,20,1,0.431670189,6.015763998,1242.884247,0,2,5,3
10,20,1,0.374568939,7.999140024,1244.867623,0,1,4,3
10,20,1,0.378795147,9.999042988,1246.867526,0,1,5,3
10,8,1,0.664999008,2.015618086,1258.93463,0,2,4,3
10,8,1,0.789838791,3.999005079,1260.918017,0,0,5,3
10,8,1,0.619297028,5.999042034,1262.918053,0,0,3,3
10,8,1,0.857754946,7.999134064,1264.918146,0,0,2,3
10,8,1,0.491839886,9.999181032,1266.918193,0,0,2,3
14,4,0,0.41562891,0.41739583,1294.520554,0,2,7,4
14,4,0,0.30188179,0.322278023,1298.875614,0,0,7,4
14,20,1,0.530651093,2.015675068,1304.919061,0,2,6,4
14,20,1,0.541910887,3.999074936,1306.902461,0,0,4,4
14,20,1,0.399663925,5.999141932,1308.902528,0,1,3,4
14,20,1,0.443301916,7.999212027,1310.902597,0,0,0,4
14,20,1,0.378435135,9.99928093,1312.902666,0,0,3,4
14,20,1,0.378317118,11.99927998,1314.902666,0,1,4,4
14,20,1,0.431164026,14.01599002,1316.919376,0,2,4,4
14,20,2,0.581869125,2.015709162,1324.986229,0,2,5,4
14,20,2,0.461642027,3.999132156,1326.969652,0,1,7,4
14,8,1,0.686479092,1.998930216,1333.003124,0,0,7,4
14,8,1,0.457392931,3.998936176,1335.003129,0,1,6,4
14,8,1,0.664637089,6.015684128,1337.019878,0,2,1,4
14,8,1,0.547974825,8.015757084,1339.019951,0,2,4,4
14,8,1,0.708000898,9.99911809,1341.003312,0,1,5,4
14,8,1,0.524433136,11.99915504,1343.003349,0,0,7,4
14,8,1,0.595851183,13.99923706,1345.00343,0,0,2,4
14,8,1,0.567007065,1.999152899,1353.05362,0,0,4,4
14,8,2,0.66382885,4.015789032,1355.070256,0,2,5,4
14,8,1,0.509159088,5.999223948,1357.053691,0,0,3,4
14,8,1,0.492923021,7.999300957,1359.053768,0,0,6,4
14,8,1,0.515726089,9.999366999,1361.053834,0,0,6,4
14,8,1,0.518572092,11.99939799,1363.053865,0,0,5,4
14,8,1,0.418710947,13.99940205,1365.053869,0,1,4,4
14,4,0,0.350741148,0.353703022,1371.458674,0,1,3,4
14,20,1,0.68186307,2.015691996,1377.504264,0,2,6,4
14,20,1,0.47852397,3.999001026,1379.487573,0,0,4,4
14,20,1,0.439217091,5.998584986,1381.487157,0,0,2,4
14,20,1,0.398364067,8.015768051,1383.50434,0,2,5,4
14,20,1,0.48033309,10.01584196,1385.504414,0,2,0,4
14,20,1,0.407807112,11.99924803,1387.48782,0,1,4,4
14,20,1,0.614248037,14.01588297,1389.504455,0,2,1,4
14,8,0,0.421452999,0.441925049,1395.997599,0,0,5,4
14,20,1,0.540119171,1.999161005,1402.021469,0,0,5,4
14,20,1,0.405762911,3.999181032,1404.021489,0,1,3,4
14,20,1,0.464739084,6.015957117,1406.038265,0,2,4,4
14,20,1,0.462578058,7.99932003,1408.021627,0,1,6,4
14,20,1,0.447026014,10.01589799,1410.038206,0,2,7,4
14,20,1,0.555738926,11.99936295,1412.02167,0,0,6,4
14,20,1,0.682127953,13.99941897,1414.021727,0,1,4,4
14,4,0,0.273344994,0.293646097,1420.366218,0,0,6,4
14,8,0,0.523122072,0.528504133,1424.935014,0,1,6,4
14,4,0,0.458087921,0.463790894,1429.436921,0,1,6,4
14,4,0,0.447275877,0.467833042,1433.941109,0,0,5,4
14,8,0,0.433071136,0.434854984,1438.40756,0,2,2,4
14,8,1,0.642114162,1.999003172,1444.439126,0,1,7,4
14,8,1,0.681670904,4.015980959,1446.456105,0,2,5,4
14,8,1,0.62964797,6.015810966,1448.455934,0,2,6,4
14,8,1,0.488008022,7.999176979,1450.439299,0,1,3,4
14,8,1,0.481177092,9.99924612,1452.439368,0,1,6,4
14,8,1,0.405606031,11.99928308,1454.439406,0,1,3,4
14,8,1,0.352268934,13.99929404,1456.439417,0,1,3,4
14,20,1,0.563221216,1.999367952,1464.489651,0,1,2,4
14,20,1,0.564352989,4.016102791,1466.506386,0,2,5,4
14,20,1,0.39338088,5.999465942,1468.489749,0,1,4,4
14,20,1,0.847379923,8.016176939,1470.50646,0,2,5,4
14,20,1,0.531359911,9.999568939,1472.489852,0,0,5,4
14,20,1,0.425474882,11.99964499,1474.489927,0,0,0,4
14,20,1,0.389153957,13.99966383,1476.489946,0,1,3,4
14,20,1,0.463489056,1.999170065,1484.540158,0,0,3,4
14,20,1,0.449483871,3.999057055,1486.540046,0,0,5,4
14,20,1,0.491620064,5.999273062,1488.540262,0,0,4,4
14,20,1,0.527117968,7.999290943,1490.54028,0,0,1,4
14,20,1,0.464491129,10.01596498,1492.556954,0,2,1,4
14,20,1,0.395678043,11.99949598,1494.540485,0,0,7,4
14,20,1,0.530874014,13.99935198,1496.540341,0,1,5,4
14,8,1,0.581342936,2.015522003,1504.607291,0,2,5,4
14,8,1,0.680154085,4.015661001,1506.60743,0,2,0,4
14,8,1,0.586016893,5.998963833,1508.590733,0,1,5,4
14,8,1,0.697623968,8.015687943,1510.607457,0,2,2,4
14,8,1,0.494996071,9.998760939,1512.59053,0,0,3,4
14,8,1,0.480950117,12.01575899,1514.607528,0,2,1,4
14,8,1,0.521915913,13.99940085,1516.591171,0,0,1,4
14,20,1,0.484156847,1.99902606,1524.640789,0,0,0,4
14,20,1,0.498655081,4.015917063,1526.657681,0,2,5,4
14,20,1,0.420852184,5.999474049,1528.641238,0,0,1,4
14,20,1,0.446918011,8.016057014,1530.657821,0,2,6,4
14,20,1,0.41505003,10.01620197,1532.657966,0,2,3,4
14,20,1,0.507672071,11.999686,1534.64145,0,0,1,4
14,20,1,0.426414013,13.999722,1536.641486,0,0,6,4
14,8,0,0.266047001,0.268081903,1542.959994,0,2,5,4
14,4,0,0.255053043,0.275906086,1547.268652,0,0,0,4
14,4,0,0.40000701,0.404830933,1551.713966,0,1,1,4
14,20,1,0.631294012,2.015130043,1557.791406,0,2,7,4
14,20,1,0.510538816,3.999067068,1559.775343,0,1,6,4
14,20,1,0.345827818,5.999241114,1561.775517,0,1,3,4
14,20,1,0.40152216,7.999120951,1563.775397,0,1,7,4
14,20,2,0.497574806,10.01563001,1565.791905,0,2,4,4
14,20,1,0.508090973,11.99919009,1567.775466,0,1,6,4
14,20,1,0.581840992,14.01595807,1569.792233,0,2,6,4
14,8,0,0.241657019,0.247232914,1576.090426,0,1,7,4
14,8,0,0.298418999,0.300198078,1580.427186,0,2,4,4
14,4,0,0.283046961,0.284872055,1584.744782,0,2,0,4
14,20,1,0.526464939,1.998899937,1590.77606,0,1,5,4
14,20,1,0.634775877,3.998952866,1592.776112,0,1,5,4
14,20,1,0.578966856,5.999153852,1594.776313,0,0,3,4
14,20,1,0.480243921,7.999115944,1596.776276,0,1,5,4
14,20,1,0.496814966,10.0155189,1598.792678,0,2,7,4
14,20,1,0.38171792,12.01586604,1600.793025,0,2,5,4
14,20,1,0.631429911,14.01593685,1602.793097,0,2,3,4
14,4,0,0.249537945,0.254180908,1609.097884,0,1,1,4
14,20,2,0.737355947,1.99969101,1615.126809,0,0,7,4
14,20,1,0.676277876,3.999639988,1617.126758,0,0,5,4
14,20,1,0.598628998,5.999661922,1619.12678,0,0,3,4
14,20,2,1.000100136,7.999722004,1621.12684,0,0,4,4
14,20,1,0.565546989,2.016244173,1627.177005,0,2,0,4
14,20,1,0.381842136,3.999624968,1629.160387,0,1,7,4
14,20,1,0.714431047,6.016328096,1631.177091,0,2,6,4
14,20,1,0.474416971,7.999770164,1633.160532,0,0,4,4
14,20,1,0.642374992,9.999863148,1635.160625,0,0,7,4
14,20,1,0.465540886,12.00009513,1637.160857,0,1,5,4
14,20,1,0.516942978,13.99982715,1639.160588,0,1,0,4
14,4,0,0.332840919,0.338249922,1645.550042,0,1,6,4
14,8,1,0.451937914,1.998934984,1651.577603,0,1,4,4
14,8,1,0.453300953,4.356324911,1660.934993,0,1,2,4
14,8,1,0.514374018,6.38853097,1661.967199,0,0,3,4
14,8,2,0.898014069,8.405932903,1662.984601,0,2,3,4
14,8,1,0.571634054,10.42224193,1664.00091,0,1,4,4
14,8,1,0.54513216,12.43934894,1665.018017,0,1,6,4
14,8,1,0.492821932,14.48974991,1666.068417,0,0,7,4
14,20,1,0.504065037,1.998955011,1674.118682,0,1,5,4
14,20,1,0.427130938,3.9989779,1676.118705,0,1,6,4
14,20,1,0.446830988,6.015736103,1678.135463,0,2,4,4
14,20,1,0.384941816,7.999116898,1680.118844,0,1,0,4
14,20,1,0.409147978,9.998353958,1682.118081,0,0,7,4
14,20,1,0.419332981,11.99918509,1684.118912,0,1,6,4
14,20,1,0.47082305,13.99923611,1686.118963,0,1,6,4
14,4,0,0.348943949,0.350726843,1692.521115,0,2,6,4
14,8,1,0.435662031,1.998887062,1698.552637,0,0,0,4
14,8,1,0.680356979,4.015590191,1700.56934,0,2,4,4
14,8,1,0.374848127,5.998969078,1702.552719,0,0,2,4
14,8,1,0.430851936,8.01573801,1704.569488,0,2,5,4
14,8,1,0.426766157,9.999098063,1706.552848,0,0,0,4
14,8,1,0.466333866,11.99910808,1708.552858,0,1,1,4
14,8,1,0.422206879,13.99913406,1710.552883,0,0,7,4
2,20,1,0.715439796,2.015613079,1724.152905,0,2,7,5
2,4,1,0.534552813,1.998831987,1744.220286,0,1,1,5
2,4,1,0.611423016,1.999174118,1764.270912,0,1,6,5
2,20,1,0.695847988,1.998962164,1784.32145,0,0,1,5
2,8,1,0.48379612,1.998590946,1804.371616,0,0,4,5
2,8,1,0.597910166,1.99883604,1824.42241,0,1,6,5
2,8,1,0.640993834,1.998847008,1844.472896,0,1,7,5
2,4,1,0.566432953,1.999264956,1864.523446,0,0,7,5
2,20,1,0.625398159,1.998847008,1884.573911,0,0,2,5
2,20,1,0.597043991,2.015621901,1904.64106,0,2,1,5
2,8,1,0.476817131,1.999475956,1924.691558,0,0,4,5
2,4,1,0.681008816,2.015583992,1944.758715,0,2,0,5
2,4,1,0.69878602,2.015918016,1964.826093,0,2,6,5
2,8,1,0.691643953,1.998905182,1984.876415,0,0,4,5
2,20,1,0.536181927,1.998902082,2004.92688,0,1,4,5
2,8,1,0.641059875,1.999250174,2024.977386,0,1,0,5
2,4,1,0.782034874,2.015792847,2045.044759,0,2,3,5
2,20,1,0.697617054,2.015610933,2065.111713,0,2,4,5
2,8,1,0.510754824,1.998924017,2085.162233,0,0,6,5
2,4,1,0.530298948,1.998980999,2105.212705,0,0,3,5
2,20,1,0.500657082,1.998944044,2125.263126,0,1,4,5
10,20,1,0.519712925,1.999708891,2151.313801,0,1,2,6
10,20,1,0.472539186,3.999758959,2153.313851,0,1,1,6
10,20,2,0.698136091,6.016524076,2155.330616,0,2,3,6
10,20,2,0.681738853,8.016551018,2157.330643,0,2,1,6
10,4,0,0.249099016,0.254545927,2165.618915,0,1,6,6
10,20,1,0.531877995,1.999043941,2175.647767,0,1,5,6
10,20,1,0.780220985,4.015790939,2177.664514,0,2,0,6
10,20,1,0.881719112,6.015813112,2179.664537,0,2,0,6
10,20,1,0.718197107,7.99918294,2181.647906,0,0,5,6
10,20,1,0.654124022,9.999248028,2183.647972,0,0,7,6
10,4,0,0.544177771,0.54706502,2194.246088,0,1,3,6
10,8,1,0.516030073,1.99890089,2204.281772,0,1,6,6
10,8,1,0.65120101,3.99899292,2206.281864,0,1,7,6
10,8,1,0.489016056,5.99910593,2208.281977,0,0,0,6
10,8,1,0.643428087,7.999070883,2210.281942,0,0,2,6
10,8,1,0.764065981,10.01581597,2212.298687,0,2,3,6
10,8,1,0.664790869,2.01552701,2224.365629,0,2,4,6
10,8,1,0.48127079,4.015596867,2226.365699,0,2,4,6
10,8,1,0.430253029,6.015681028,2228.365783,0,2,0,6
10,8,1,0.330430984,8.015760899,2230.365863,0,2,7,6
10,8,1,0.447585106,10.01575589,2232.365858,0,2,4,6
10,20,1,0.485651016,1.998880863,2244.416167,0,1,0,6
10,20,1,0.470805168,3.99890399,2246.41619,0,1,6,6
10,20,1,0.548342228,6.015663862,2248.43295,0,2,0,6
10,20,1,0.407469988,7.999036074,2250.416322,0,1,5,6
10,20,1,0.398321152,9.999064922,2252.416351,0,0,1,6
10,8,1,0.566837072,1.998942852,2264.466691,0,0,0,6
10,8,1,0.452594995,3.998933077,2266.466681,0,1,1,6
10,8,1,0.450875998,5.999017954,2268.466766,0,0,3,6
10,8,1,0.476598024,7.999065876,2270.466814,0,1,6,6
10,8,1,0.497237921,9.999113083,2272.466861,0,1,3,6
10,4,0,0.256208181,0.276398897,2282.794598,0,0,1,6
10,8,1,0.464145184,1.9988451,2292.834054,0,0,2,6
10,8,1,0.483006954,3.998893023,2294.834102,0,1,6,6
10,8,2,0.448400021,6.015588045,2296.850797,0,2,2,6
10,8,1,0.403952122,7.998986006,2298.834195,0,0,6,6
10,8,1,0.473272085,9.998975992,2300.834185,0,0,4,6
10,4,0,0.31516099,0.317342997,2311.202651,0,2,2,6
10,20,1,0.503949881,1.998867989,2321.234734,0,1,2,6
10,20,1,0.41415906,4.015611172,2323.251477,0,2,7,6
10,20,1,0.426951885,5.998974085,2325.234839,0,1,0,6
10,20,2,0.798455,8.015696049,2327.251563,0,2,3,6
10,20,1,0.513576984,9.999140978,2329.235007,0,1,3,6
10,20,1,0.48200798,1.998825073,2341.285277,0,0,6,6
10,20,1,0.447633982,4.015521049,2343.301973,0,2,7,6
10,20,1,0.480753183,6.015531063,2345.301983,0,2,3,6
10,20,1,0.420495987,7.998951197,2347.285404,0,1,7,6
10,20,1,0.454051018,9.998993158,2349.285445,0,0,2,6
10,4,1,0.499464989,1.998942852,2361.335777,0,0,5,6
10,4,1,0.491695166,3.998986959,2363.335821,0,0,0,6
10,4,2,0.68153286,6.015702009,2365.352536,0,2,1,6
10,4,1,0.474895954,7.999073029,2367.335907,0,1,0,6
10,4,1,0.49723506,9.999100924,2369.335935,0,1,4,6
10,8,1,0.686877966,1.998883009,2381.386257,0,1,0,6
10,8,1,0.473740101,3.998919964,2383.386294,0,1,2,6
10,8,1,0.748490095,6.015667915,2385.403042,0,2,3,6
10,8,1,0.386931896,7.999029875,2387.386404,0,1,5,6
10,8,1,0.424021959,9.999072075,2389.386447,0,1,0,6
10,4,0,0.29805398,0.299962044,2399.737786,0,2,7,6
10,8,1,0.499181032,1.99921298,2409.770293,0,0,2,6
10,8,1,0.597321987,4.01593399,2411.787014,0,2,0,6
10,8,1,0.40773797,5.999340773,2413.770421,0,1,6,6
10,8,1,0.415231943,8.016004801,2415.787085,0,2,5,6
10,8,2,0.479619026,9.999441862,2417.770522,0,1,5,6
10,20,1,0.502900124,1.999032974,2429.820813,0,0,3,6
10,20,1,0.553442001,3.999065876,2431.820845,0,1,1,6
10,20,1,0.465102911,6.015836,2433.837616,0,2,4,6
10,20,1,0.486155033,7.999145985,2435.820926,0,0,0,6
10,20,1,0.764651775,10.0158689,2437.837649,0,2,3,6
10,4,1,0.456984997,1.998883963,2449.887889,0,0,0,6
10,4,1,0.548083067,4.015583038,2451.904588,0,2,0,6
10,4,1,0.413991928,6.015648842,2453.904654,0,2,1,6
10,4,1,0.454182863,7.999017954,2455.888023,0,0,6,6
10,4,1,0.423532963,9.999027014,2457.888031,0,1,5,6
10,8,1,0.456184864,1.999028921,2469.93829,0,1,2,6
10,8,1,0.463634968,4.015779972,2471.955042,0,2,4,6
10,8,1,0.414892912,6.015807867,2473.95507,0,2,3,6
10,8,1,0.4715271,7.999181032,2475.938443,0,0,3,6
10,8,1,0.600815058,9.999185085,2477.938447,0,1,4,6
10,20,1,0.643499851,1.998684168,2489.98841,0,0,4,6
10,20,1,0.394150019,3.999003172,2491.988729,0,1,3,6
10,20,1,0.434094191,5.999083042,2493.988809,0,1,1,6
10,20,1,0.457458019,7.999134064,2495.98886,0,1,1,6
10,20,1,0.464193821,10.01584601,2498.005572,0,2,2,6
10,4,0,0.276787043,0.297574997,2508.354532,0,0,1,6
10,20,1,0.587257147,1.999002218,2518.389328,0,0,7,6
10,20,1,0.414861917,4.015563011,2520.405889,0,2,7,6
10,20,1,0.455265045,5.999067068,2522.389393,0,0,4,6
10,20,1,0.414582968,7.99914217,2524.389469,0,0,6,6
10,20,1,0.475238085,9.999179125,2526.389504,0,0,0,6
10,8,1,0.448839903,2.015491962,2538.456404,0,2,6,6
10,8,0,3.200901985,3.200940847,2539.641854,0,0,5,6
10,8,1,0.527905941,1.998719931,2549.673248,0,1,4,6
10,8,1,0.449322939,3.998806953,2551.673335,0,0,4,6
10,8,1,0.420783997,5.998862028,2553.67339,0,0,6,6
10,8,1,0.443895102,7.998855114,2555.673382,0,1,7,6
10,8,1,0.448029041,9.998945951,2557.673474,0,0,0,6