"Handling","Reward","Choice","Task.RT","Choice.RT","Experiment.Time","Trial.Outcome","Task.Type","Task.Setup","Block"
2,20,1,0.594011783599854,2.01534819602966,9.06906509399414,"0",2,6,1
2,4,0,0.0180091857910156,0.0198769569396973,27.1570320129395,"0",2,2,1
2,4,0,0.798107862472534,0.800523996353149,43.9886391162872,"0",2,3,1
2,8,2,0.99741792678833,2.01578211784363,62.0368640422821,"0",2,0,1
2,20,1,0.710286140441895,1.99879288673401,80.0705599784851,"0",0,7,1
2,8,1,0.540157079696655,1.99942684173584,100.121286153793,"0",0,7,1
2,20,1,0.762770175933838,1.99911403656006,120.171765089035,"0",1,1,1
2,4,1,0.578487157821655,1.99874114990234,140.221775054932,"0",0,4,1
2,20,1,0.655907154083252,1.99910688400269,160.272547006607,"0",1,6,1
2,8,1,0.698689937591553,2.01585698127747,180.339802026749,"0",2,1,1
2,4,0,0.302157163619995,0.306586980819702,198.697615146637,"0",1,4,1
2,8,1,0.62521505355835,1.99990391731262,216.723738193512,"0",1,4,1
2,8,1,0.617465019226074,1.99887490272522,236.773922204971,"0",0,5,1
2,20,1,0.563770055770874,1.99911403656006,256.824616193771,"0",0,3,1
2,20,1,0.826254844665527,1.99932789802551,276.875032186508,"0",1,0,1
2,4,1,0.698570966720581,2.01594114303589,296.942306041718,"0",2,1,1
2,8,1,0.798010110855103,2.01562094688416,317.009201049805,"0",2,2,1
2,4,2,0.99727988243103,2.01567101478577,337.076014041901,"0",2,5,1
2,4,1,0.480744123458862,1.9986469745636,355.110028982162,"0",1,4,1
2,20,2,0.497773170471191,1.99903392791748,375.160493135452,"0",1,6,1
2,20,1,0.685374975204468,1.99907803535461,393.194269180298,"0",0,4,1
2,8,1,0.716693162918091,1.99915814399719,413.244697093964,"0",1,4,1
14,4,0,0.332431077957153,0.334165096282959,439.813090085983,"0",2,4,2
14,20,2,0.62624192237854,1.99907302856445,445.845336198807,"0",0,5,2
14,20,1,0.734947204589844,3.99914813041687,447.845411062241,"0",0,3,2
14,20,1,0.748124122619629,6.01580500602722,449.86206817627,"0",2,5,2
14,20,1,0.49280309677124,7.99896812438965,451.845231056213,"0",1,4,2
14,20,1,0.429036140441895,9.99924612045288,453.845509052277,"0",1,4,2
14,20,1,0.713881015777588,12.0159440040588,455.862207174301,"0",2,0,2
14,20,1,0.631443977355957,14.0157401561737,457.862002134323,"0",2,1,2
14,8,1,0.631006956100464,1.99878001213074,465.912137985229,"0",0,1,2
14,8,1,0.472814083099365,3.99911403656006,467.912471055984,"0",1,3,2
14,8,1,0.581851005554199,6.01580405235291,469.929161071777,"0",2,2,2
14,8,1,0.775117158889771,7.99921894073486,471.912576198578,"0",0,5,2
14,8,1,0.599828004837036,9.99894499778748,473.912302017212,"0",0,6,2
14,8,1,0.798277854919434,11.9992659091949,475.912623167038,"0",0,1,2
14,8,1,0.60511589050293,13.9993438720703,477.912701129913,"0",0,3,2
14,4,0,0.331998825073242,0.351763963699341,484.315448045731,"0",0,3,2
14,20,1,0.593666791915894,1.99933218955994,490.346480131149,"0",0,5,2
14,20,1,0.564736127853394,4.01583003997803,492.36297917366,"0",2,5,2
14,20,1,0.445702075958252,5.99922704696655,494.346376180649,"0",1,4,2
14,20,1,0.445965051651001,7.99935412406921,496.346503019333,"0",1,7,2
14,20,1,0.410159826278687,9.99932312965393,498.346472024918,"0",1,5,2
14,20,1,0.419832944869995,11.9994041919708,500.34655213356,"0",1,3,2
14,20,1,0.491575956344604,13.9991819858551,502.346331119537,"0",0,0,2
14,8,1,0.81696891784668,1.99868583679199,510.396395206451,"0",0,7,2
14,8,1,0.55056095123291,3.99878287315369,512.396493196487,"0",0,1,2
14,8,1,0.501477003097534,5.99884295463562,514.396553039551,"0",0,3,2
14,8,1,0.492723941802979,7.99918389320374,516.396893978119,"0",1,3,2
14,8,1,0.536704063415527,9.99922895431519,518.396938085556,"0",1,6,2
14,8,1,0.532317161560059,11.999039888382,520.396749973297,"0",0,0,2
14,8,2,0.997052192687988,14.0160429477692,522.413753032684,"0",2,2,2
14,20,1,0.49974513053894,1.99882698059082,530.463557004929,"0",0,3,2
14,20,1,0.498740196228027,4.01578092575073,532.480511188507,"0",2,5,2
14,20,1,0.456496953964233,5.99918603897095,534.463916063309,"0",1,7,2
14,20,1,0.474285840988159,7.99844288825989,536.463173151016,"0",0,2,2
14,20,1,0.543907165527344,9.99934196472168,538.464071035385,"0",1,1,2
14,20,1,0.483761072158813,11.9993679523468,540.464097976685,"0",0,5,2
14,20,1,0.584306955337524,13.9990799427032,542.46381020546,"0",0,2,2
14,4,0,0.299094915390015,0.300849914550781,548.81610918045,"0",2,0,2
14,8,1,0.604168176651001,1.99903893470764,554.847710132599,"0",1,2,2
14,8,1,0.391109943389893,3.99913096427917,556.84780216217,"0",1,2,2
14,8,1,0.45966911315918,5.99915313720703,558.84782409668,"0",1,1,2
14,8,2,0.747595071792603,8.0156090259552,560.864279985428,"0",2,0,2
14,8,1,0.49692702293396,9.99930906295776,562.84798002243,"0",0,0,2
14,8,1,0.562294006347656,11.9994261264801,564.848097085953,"0",1,7,2
14,8,1,0.536622047424316,13.9993660449982,566.848037004471,"0",1,0,2
14,4,0,0.27841591835022,0.297832012176514,573.196984052658,"0",0,6,2
14,20,1,0.766451120376587,2.00013589859009,579.231634140015,"0",2,2,2
14,20,1,0.548111200332642,4.00021600723267,581.231714010239,"0",2,1,2
14,20,1,0.50754189491272,6.00017189979553,583.23167014122,"0",0,3,2
14,20,1,0.437488079071045,8.00027704238892,585.231775045395,"0",0,6,2
14,20,1,0.501820087432861,10.0003139972687,587.231812000275,"0",1,1,2
14,20,1,0.485820055007935,12.0003840923309,589.231881141663,"0",1,1,2
14,20,1,0.698276996612549,14.0003349781036,591.23183298111,"0",2,3,2
14,8,1,0.648823022842407,2.01574397087097,599.298645973206,"0",2,1,2
14,8,1,0.462337017059326,3.99920606613159,601.282108068466,"0",0,6,2
14,8,1,0.538486957550049,5.99892997741699,603.281831979752,"0",0,3,2
14,8,1,0.502729892730713,7.99933910369873,605.282240152359,"0",0,6,2
14,8,1,0.630048036575317,9.99931693077087,607.282217979431,"0",0,1,2
14,8,1,0.521805047988892,11.9993560314178,609.282258033752,"0",1,6,2
14,8,1,0.518355846405029,13.9994149208069,611.282315969467,"0",1,4,2
14,20,2,0.556079864501953,1.99907803535461,619.332473039627,"0",1,1,2
14,20,1,0.564292907714844,4.01573801040649,621.349133014679,"0",2,2,2
14,20,1,0.665017127990723,6.01584887504578,623.349244117737,"0",2,5,2
14,20,1,0.617654085159302,7.99921798706055,625.332612991333,"0",0,5,2
14,20,1,0.527697801589966,9.99926710128784,627.33266210556,"0",1,5,2
14,20,1,0.541520118713379,11.999274969101,629.332669973373,"0",0,5,2
14,20,1,0.538020849227905,13.9993920326233,631.332787036896,"0",0,7,2
14,8,1,0.560724020004272,1.99934792518616,639.383239984512,"0",0,1,2
14,8,1,0.612594127655029,3.99877095222473,641.382664203644,"0",0,5,2
14,8,1,0.54547905921936,5.99881505966187,643.382708072662,"0",1,2,2
14,8,1,0.536208152770996,7.99912405014038,645.383017063141,"0",1,1,2
14,8,1,0.564774990081787,9.99891495704651,647.382807970047,"0",0,2,2
14,8,1,0.715013027191162,12.01593708992,649.399829149246,"0",2,0,2
14,8,1,0.470226049423218,13.9993178844452,651.383211135864,"0",0,0,2
14,4,0,0.332127094268799,0.333996057510376,657.768376111984,"0",2,0,2
14,20,1,0.619431018829346,1.99902987480164,663.800119161606,"0",1,3,2
14,20,1,0.518152952194214,3.99910092353821,665.800189971924,"0",0,5,2
14,20,1,0.413861036300659,5.99885582923889,667.799945116043,"0",0,0,2
14,20,1,0.534693956375122,7.99923205375671,669.800321102142,"0",1,1,2
14,20,1,0.449982881546021,9.99927997589111,671.800369024277,"0",1,7,2
14,20,1,0.831957101821899,12.0159599781036,673.817048072815,"0",2,5,2
14,20,1,0.545279026031494,13.9994230270386,675.800512075424,"0",1,7,2
14,4,0,0.427112102508545,0.430305957794189,682.280737161636,"0",1,0,2
14,8,1,0.66739296913147,1.99899196624756,688.317463159561,"0",0,1,2
14,8,1,0.484622955322266,3.99901294708252,690.317484140396,"0",0,7,2
14,8,1,0.530544996261597,6.01578998565674,692.33426117897,"0",2,1,2
14,8,1,0.536189079284668,7.99915814399719,694.317628145218,"0",1,0,2
14,8,1,0.515860080718994,9.99921298027039,696.317684173584,"0",1,3,2
14,8,1,0.461544036865234,11.9992580413818,698.317728996277,"0",1,4,2
14,8,1,0.394559144973755,13.9993281364441,700.317799091339,"0",1,4,2
14,4,0,0.299899816513062,0.302781105041504,706.671630144119,"0",1,3,2
14,20,1,0.525239944458008,1.99905586242676,712.701416969299,"0",0,0,2
14,20,1,0.555372953414917,3.99916481971741,714.701526165009,"0",1,2,2
14,20,1,0.552579164505005,5.99918794631958,716.701549053192,"0",1,1,2
14,20,1,0.500778913497925,7.99890398979187,718.701265096664,"0",0,1,2
14,20,1,0.537009000778198,9.99923896789551,720.701600074768,"0",1,7,2
14,20,1,0.452291965484619,11.9993679523468,722.701729059219,"0",0,3,2
14,20,2,0.557390928268433,13.9993689060211,724.701730012894,"0",0,0,2
14,8,0,0.313556909561157,0.318988800048828,731.071806192398,"0",1,7,2
14,4,0,0.507050037384033,0.526922941207886,735.629846096039,"0",0,4,2
14,8,1,0.591586112976074,1.99942016601562,741.66881608963,"0",0,0,2
14,8,1,0.558541059494019,3.99949312210083,743.668889045715,"0",1,0,2
14,8,1,0.898452997207642,6.01614212989807,745.685538053513,"0",2,7,2
14,8,1,0.829568147659302,8.01597905158997,747.685374975204,"0",2,7,2
14,8,1,0.533744096755981,9.99965405464172,749.669049978256,"0",0,3,2
14,8,1,0.677121162414551,11.9998140335083,751.669210195541,"0",1,3,2
14,8,1,0.430813074111938,13.9996681213379,753.669063091278,"0",1,3,2
14,20,1,0.601935863494873,1.99894213676453,761.719324111938,"0",0,1,2
14,20,1,0.452564001083374,3.99904990196228,763.719432115555,"0",0,1,2
14,20,1,0.698065996170044,6.01569104194641,765.736072063446,"0",2,7,2
14,20,1,0.518886089324951,7.99882411956787,767.719206094742,"0",1,2,2
14,20,1,0.544286966323853,9.99884510040283,769.719227075577,"0",0,6,2
14,20,1,0.61543083190918,12.0159630775452,771.736345052719,"0",2,7,2
14,20,2,0.59660816192627,14.0159170627594,773.736299037933,"0",2,1,2
14,4,0,0.365721940994263,0.367601871490479,780.155086994171,"0",2,6,2
14,20,1,0.566933870315552,1.99901413917542,786.186640024185,"0",1,1,2
14,20,1,0.436959028244019,3.99901914596558,788.186645030975,"0",1,7,2
14,20,1,0.780626058578491,6.01547908782959,790.203104972839,"0",2,5,2
14,20,1,0.493716955184937,7.99887609481812,792.186501979828,"0",1,4,2
14,20,1,0.463576078414917,9.99923014640808,794.186856031418,"0",1,3,2
14,20,1,0.450670003890991,11.999263048172,796.1868891716,"0",1,7,2
14,20,1,0.389744997024536,13.9994041919708,798.187030076981,"0",1,5,2
14,8,0,0.449429988861084,0.451174020767212,804.689280033112,"0",2,3,2
14,20,1,0.494968891143799,2.00042200088501,810.720623016357,"0",1,4,2
14,20,1,0.573412895202637,4.00016093254089,812.720362186432,"0",0,1,2
14,20,1,0.581143140792847,6.00018787384033,814.720389127731,"0",2,5,2
14,20,1,0.544689178466797,8.00023698806763,816.72043800354,"0",0,4,2
14,20,1,0.367496967315674,10.0006408691406,818.720842123032,"0",0,4,2
14,20,1,0.897300004959106,12.0004169940948,820.720617055893,"0",2,1,2
14,20,1,0.520912885665894,14.0006940364838,822.720895051956,"0",1,6,2
14,4,0,0.296977043151855,0.31653904914856,829.088559150696,"0",0,3,2
14,8,1,0.680327892303467,2.01530003547668,835.137590169907,"0",2,0,2
14,8,1,0.680882930755615,4.01565313339233,837.137943029404,"0",2,6,2
14,8,1,0.581163883209229,5.99906921386719,839.121359109879,"0",0,0,2
14,8,1,0.492599964141846,7.99909710884094,841.121387004852,"0",0,3,2
14,8,1,0.697911024093628,10.0157871246338,843.138077020645,"0",2,5,2
14,8,1,0.672749996185303,11.998939037323,845.121229171753,"0",1,1,2
14,8,1,0.681354999542236,13.9989521503448,847.121242046356,"0",0,7,2
10,4,0,0.391644954681396,0.410910129547119,859.734142065048,"0",0,1,3
10,20,1,0.537975072860718,1.99903011322021,869.772118091583,"0",0,2,3
10,20,1,0.531393051147461,4.01574611663818,871.788833141327,"0",2,4,3
10,20,1,0.536938905715942,5.99926400184631,873.772351980209,"0",0,5,3
10,20,2,0.39226222038269,7.99916005134583,875.772247076035,"0",1,2,3
10,20,1,0.575438976287842,9.99923992156982,877.772328138351,"0",0,1,3
10,20,1,0.517227172851562,2.01572012901306,889.839303016663,"0",2,4,3
10,20,1,0.519520998001099,3.99906420707703,891.822647094727,"0",1,0,3
10,20,1,0.662336826324463,5.99915599822998,893.822738170624,"0",0,5,3
10,20,1,0.535917997360229,7.99945306777954,895.823036193848,"0",0,0,3
10,20,1,0.530527830123901,9.99933099746704,897.822915077209,"0",1,4,3
10,8,1,0.682708978652954,1.99963998794556,909.873131990433,"0",2,1,3
10,8,1,0.723471879959106,3.99940705299377,911.872899055481,"0",0,7,3
10,8,1,0.483451843261719,5.99976205825806,913.873254060745,"0",0,1,3
10,8,1,0.731787919998169,8.01655507087708,915.89004611969,"0",2,6,3
10,8,1,0.48476505279541,9.99986100196838,917.873353004456,"0",1,7,3
10,8,2,0.997123956680298,2.01538419723511,929.939999103546,"0",2,0,3
10,8,1,0.53243088722229,3.99914717674255,931.923761129379,"0",0,3,3
10,8,1,0.504029035568237,5.99921917915344,933.923834085464,"0",1,3,3
10,8,1,0.501689910888672,8.01583003997803,935.940445184708,"0",0,6,3
10,8,1,0.421854019165039,9.9992241859436,937.923839092255,"0",0,4,3
10,4,0,0.315467119216919,0.334692001342773,948.309728145599,"0",0,1,3
10,4,0,0.371490001678467,0.390738964080811,956.732886075974,"0",0,1,3
10,8,1,0.698524951934814,2.01531195640564,966.774243116379,"0",2,5,3
10,8,1,0.437520027160645,3.99883699417114,968.757768154144,"0",1,3,3
10,8,1,0.481279134750366,5.99914002418518,970.758069992065,"0",1,2,3
10,8,1,0.529764890670776,7.99915719032288,972.758088111877,"0",0,2,3
10,8,1,0.562617063522339,9.999272108078,974.758203029633,"0",1,1,3
10,20,1,0.604857206344604,1.99971389770508,986.808452129364,"0",1,2,3
10,20,1,0.505170106887817,3.99944400787354,988.808182001114,"0",0,6,3
10,20,2,0.997429132461548,6.01650905609131,990.825247049332,"0",2,5,3
10,20,1,0.515187978744507,7.99956107139587,992.808299064636,"0",1,6,3
10,20,1,0.548702001571655,10.0165510177612,994.825289011002,"0",2,3,3
10,4,0,0.282680988311768,0.284419059753418,1005.16092514992,"0",2,6,3
10,20,1,0.547460079193115,2.01523494720459,1015.20897006989,"0",2,4,3
10,20,1,0.514358997344971,4.01550507545471,1017.20923900604,"0",2,3,3
10,20,1,0.564864158630371,5.99923896789551,1019.19297409058,"0",1,2,3
10,20,1,0.545664072036743,7.99895405769348,1021.19268798828,"0",1,1,3
10,20,1,0.46441912651062,9.99899101257324,1023.19272518158,"0",1,6,3
10,8,1,0.598706007003784,2.01544809341431,1035.25937008858,"0",2,6,3
10,8,1,0.518975973129272,3.99915289878845,1037.24307513237,"0",1,5,3
10,8,1,0.562800884246826,5.99924993515015,1039.24317216873,"0",1,6,3
10,8,1,0.603927135467529,7.99960494041443,1041.2435259819,"0",0,0,3
10,8,1,0.614392995834351,10.0159299373627,1043.25985217094,"0",2,0,3
10,20,1,0.564907073974609,2.01552104949951,1055.32663798332,"0",2,1,3
10,20,1,0.546724081039429,3.99912595748901,1057.31024312973,"0",0,4,3
10,20,1,0.506448030471802,5.99907302856445,1059.31019020081,"0",1,1,3
10,20,1,0.416893005371094,7.99923014640808,1061.31034708023,"0",1,3,3
10,20,1,0.536394119262695,9.99938297271729,1063.31050014496,"0",1,0,3
10,4,0,0.332385063171387,0.334141969680786,1073.69587397575,"0",2,3,3
10,20,1,0.506546974182129,1.99882793426514,1083.72731399536,"0",0,2,3
10,20,1,0.505557060241699,3.9991979598999,1085.727684021,"0",0,0,3
10,20,1,0.548808813095093,6.01589894294739,1087.74438500404,"0",2,3,3
10,20,1,0.547070026397705,8.01591682434082,1089.74440312386,"0",2,0,3
10,20,1,0.51660418510437,9.99929094314575,1091.72777700424,"0",0,2,3
10,8,1,0.739109992980957,1.99929285049438,1103.77826714516,"0",1,1,3
10,8,1,0.547529935836792,4.0158269405365,1105.79480099678,"0",2,4,3
10,8,2,0.477248907089233,5.99919986724854,1107.77817416191,"0",0,7,3
10,8,1,0.595309972763062,7.99928498268127,1109.77825903893,"0",1,2,3
10,8,1,0.594642162322998,9.99908685684204,1111.7780611515,"0",0,7,3
10,4,2,0.997077941894531,2.01566886901855,1123.84524297714,"0",2,6,3
10,4,2,1.00005388259888,3.99917578697205,1125.82875013351,"0",0,2,3
10,8,1,0.571939945220947,1.99905109405518,1135.8622200489,"0",0,1,3
10,8,1,0.630627870559692,3.99914717674255,1137.86231708527,"0",1,3,3
10,8,1,0.506280899047852,5.999027967453,1139.8621981144,"0",0,7,3
10,8,1,0.370291948318481,7.99955105781555,1141.86272120476,"0",0,4,3
10,8,1,0.399338006973267,9.99933004379272,1143.86250019073,"0",0,1,3
10,4,0,0.332052946090698,0.33392596244812,1154.24761509895,"0",2,4,3
10,4,0,0.299078941345215,0.300954103469849,1162.58154511452,"0",2,3,3
10,8,1,0.604801893234253,1.99916505813599,1172.61318707466,"0",1,1,3
10,8,1,0.564478158950806,4.0158588886261,1174.62988114357,"0",2,7,3
10,8,1,0.463279008865356,5.99897408485413,1176.61299610138,"0",1,4,3
10,8,1,0.531018018722534,8.01602506637573,1178.6300470829,"0",2,0,3
10,8,1,0.630144834518433,9.99909400939941,1180.61311602592,"0",1,1,3
10,8,0,0.595854043960571,0.599172830581665,1191.31353116035,"0",1,5,3
10,20,1,0.533720016479492,1.99904298782349,1201.34722018242,"0",1,5,3
10,20,1,0.388074159622192,3.99913501739502,1203.34731197357,"0",1,5,3
10,20,1,0.574636936187744,5.99885606765747,1205.34703302383,"0",0,4,3
10,20,1,0.467336177825928,7.99930095672607,1207.34747815132,"0",1,2,3
10,20,1,0.485949039459229,9.99930715560913,1209.34748411179,"0",1,3,3
10,20,1,0.581622123718262,2.01561498641968,1221.41430401802,"0",2,5,3
10,20,1,0.429697036743164,3.99914407730103,1223.3978331089,"0",1,4,3
10,20,1,0.511382102966309,5.99891495704651,1225.39760398865,"0",1,1,3
10,20,1,0.452972888946533,7.9993109703064,1227.39800000191,"0",1,7,3
10,20,1,0.663383007049561,10.015909910202,1229.41459918022,"0",2,5,3
10,4,0,0.363535165786743,0.365391969680786,1239.83134102821,"0",2,1,3
10,4,0,0.433501958847046,0.437919855117798,1248.30414819717,"0",1,4,3
10,20,1,0.603679895401001,1.99875497817993,1258.33174705505,"0",0,7,3
10,20,1,0.479950189590454,3.999263048172,1260.33225607872,"0",1,4,3
10,20,1,0.510356903076172,5.99922299385071,1262.3322160244,"0",1,1,3
10,20,1,0.495224952697754,7.99923992156982,1264.33223319054,"0",0,6,3
10,20,1,0.535304069519043,9.99926900863647,1266.33226203918,"0",1,6,3
2,8,1,0.681500911712646,2.01547694206238,1323.54994797707,"0",2,6,4
2,20,1,0.670128107070923,2.01575708389282,1343.61754608154,"0",0,4,4
2,8,1,0.666405200958252,2.01540112495422,1363.68441700935,"0",2,4,4
2,4,1,0.631028890609741,2.01574110984802,1383.75182104111,"0",2,2,4
2,4,1,0.568513870239258,1.99933218955994,1403.80239009857,"0",0,1,4
2,20,1,0.648584127426147,2.01576781272888,1423.86958813667,"0",2,1,4
2,4,1,0.532235860824585,2.01595211029053,1443.93673706055,"0",2,2,4
2,8,1,0.613806009292603,1.99908185005188,1463.98729419708,"0",1,0,4
2,8,1,0.632114171981812,2.01587295532227,1484.05433511734,"0",2,5,4
2,20,1,0.831423997879028,2.01554703712463,1504.12129116058,"0",2,4,4
2,4,1,0.538034200668335,1.99874687194824,1524.17180013657,"0",0,0,4
2,20,1,0.594331979751587,1.99900698661804,1544.22258996964,"0",0,1,4
2,20,1,0.750076055526733,2.01638102531433,1564.28979611397,"0",2,0,4
2,4,1,0.584029197692871,1.99900603294373,1584.34022903442,"0",1,6,4
2,4,1,0.69843602180481,2.01570987701416,1604.40737199783,"0",2,1,4
2,8,1,0.541693925857544,1.99906182289124,1624.45788407326,"0",1,3,4
2,8,1,0.590054035186768,1.99869799613953,1644.50812506676,"0",0,3,4
2,20,1,0.528347969055176,1.99899506568909,1664.55892109871,"0",0,5,4
2,8,1,0.570639133453369,1.9989869594574,1684.60943603516,"0",1,7,4
2,20,1,0.544090986251831,1.99923300743103,1704.65994620323,"0",0,4,4
2,4,1,0.570446968078613,1.99906492233276,1724.71045017242,"0",0,3,4
14,4,0,0.32023286819458,0.33967399597168,1749.40195202827,"0",0,0,5
14,20,1,0.688530921936035,1.99920105934143,1755.42795801163,"0",0,4,5
14,20,1,0.467999935150146,3.99924302101135,1757.4279999733,"0",1,4,5
14,20,1,0.513351917266846,5.99884414672852,1759.42760109901,"0",1,0,5
14,20,1,0.455079078674316,7.9993040561676,1761.42806100845,"0",0,1,5
14,20,1,0.52498197555542,9.99936699867249,1763.42812418938,"0",0,0,5
14,20,1,0.563308954238892,11.9994699954987,1765.4282271862,"0",1,2,5
14,20,1,0.446488857269287,13.9994270801544,1767.42818403244,"0",1,2,5
14,8,1,0.609272003173828,1.99963212013245,1775.47843503952,"0",1,1,5
14,8,1,0.54803991317749,4.01631116867065,1777.49511408806,"0",2,0,5
14,8,1,0.528360843658447,5.99969816207886,1779.47850108147,"0",0,7,5
14,8,1,0.522302865982056,7.99979496002197,1781.47859811783,"0",1,3,5
14,8,1,0.658154964447021,9.9998300075531,1783.47863316536,"0",0,5,5
14,8,1,0.418605804443359,11.9999079704285,1785.47871112823,"0",0,0,5
14,8,1,0.426666975021362,13.9999001026154,1787.478703022,"0",0,6,5
14,8,1,0.582096815109253,2.01564192771912,1795.54553508759,"0",2,0,5
14,8,1,0.561559915542603,3.99911594390869,1797.52901005745,"0",0,7,5
14,8,1,0.48040509223938,6.01561999320984,1799.54551410675,"0",2,3,5
14,8,1,0.683104991912842,7.9993109703064,1801.52920508385,"0",0,5,5
14,8,1,0.565407991409302,9.99927186965942,1803.5291659832,"0",1,6,5
14,8,1,0.564921140670776,12.0156319141388,1805.54552507401,"0",2,2,5
14,8,2,0.698177099227905,14.016049861908,1807.54594397545,"0",2,7,5
14,20,1,0.88244104385376,2.0003719329834,1815.5960931778,"0",2,3,5
14,20,1,0.521214962005615,4.00038909912109,1817.59611010551,"0",1,7,5
14,20,1,0.52214789390564,6.00048494338989,1819.5962061882,"0",1,6,5
14,20,1,0.499976873397827,8.00060200691223,1821.59632301331,"0",0,6,5
14,20,1,0.561129808425903,10.0006730556488,1823.59639310837,"0",0,5,5
14,20,1,0.494040966033936,12.0006148815155,1825.59633612633,"0",1,4,5
14,20,1,0.467781066894531,14.000648021698,1827.59636902809,"0",1,2,5
14,4,0,0.282532215118408,0.284277200698853,1833.93190407753,"0",2,4,5
14,4,0,0.296326875686646,0.301664113998413,1838.2662551403,"0",1,7,5
14,8,0,0.382280111312866,0.384124040603638,1842.68197703362,"0",2,0,5
14,4,0,0.298923015594482,0.303367137908936,1847.01774811745,"0",1,1,5
14,20,1,0.562710046768188,1.99902296066284,1853.04706406593,"0",0,1,5
14,20,1,0.463443040847778,3.99914288520813,1855.04718399048,"0",1,1,5
14,20,1,0.455916881561279,5.9993748664856,1857.04741597176,"0",0,2,5
14,20,1,0.494493007659912,7.99917387962341,1859.04721498489,"0",1,6,5
14,20,1,0.509143114089966,10.0003428459167,1861.04838514328,"0",0,1,5
14,20,1,0.406888961791992,11.9993908405304,1863.04743218422,"0",0,2,5
14,20,1,0.714870929718018,14.0160419940948,1865.06408214569,"0",2,0,5
14,20,1,0.526504039764404,1.99870491027832,1873.14727902412,"0",0,4,5
14,20,1,0.365444898605347,3.999027967453,1875.1476020813,"0",0,6,5
14,20,1,0.465671062469482,5.99913191795349,1877.1477060318,"0",1,2,5
14,20,1,0.931719064712524,8.01559376716614,1879.16416811943,"0",2,6,5
14,20,1,0.488128900527954,9.9991729259491,1881.14774703979,"0",0,1,5
14,20,1,0.598664999008179,12.0156319141388,1883.16420602798,"0",2,5,5
14,20,1,0.540853977203369,13.9993009567261,1885.14787507057,"0",1,0,5
14,8,1,0.565385103225708,2.01574802398682,1893.21474599838,"0",2,1,5
14,8,2,0.498028993606567,4.01583003997803,1895.21482920647,"0",2,5,5
14,8,1,0.414488077163696,5.99887609481812,1897.19787406921,"0",1,4,5
14,8,1,0.631799936294556,8.01591801643372,1899.21491718292,"0",2,4,5
14,8,1,0.58470606803894,9.99941110610962,1901.19841003418,"0",0,0,5
14,8,1,0.464386940002441,11.9994449615479,1903.19844412804,"0",1,4,5
14,8,1,0.512195110321045,13.9994421005249,1905.19844007492,"0",0,5,5
14,4,0,0.282592058181763,0.284455060958862,1911.53397202492,"0",2,0,5
14,8,0,0.381870031356812,0.383744955062866,1915.94974899292,"0",2,5,5
14,20,1,0.602046966552734,1.99901103973389,1921.98213815689,"0",1,6,5
14,20,1,0.579306125640869,4.01579999923706,1923.99892616272,"0",2,6,5
14,20,1,0.507082223892212,5.9991500377655,1925.98227715492,"0",0,6,5
14,20,1,0.615094900131226,8.01566314697266,1927.99879002571,"0",2,6,5
14,20,1,0.56392502784729,10.0156240463257,1929.99875116348,"0",2,3,5
14,20,1,0.498412847518921,12.0160410404205,1931.99916815758,"0",2,1,5
14,20,1,0.517560958862305,13.999409198761,1933.9825360775,"0",0,4,5
14,8,1,0.571120023727417,1.99918603897095,1942.03271818161,"0",0,5,5
14,8,1,0.502561092376709,3.99925112724304,1944.03278398514,"0",1,2,5
14,8,1,0.417179107666016,5.9993040561676,1946.03283500671,"0",0,2,5
14,8,1,0.515136003494263,8.01604199409485,1948.04957413673,"0",2,5,5
14,8,1,0.448078155517578,10.0160501003265,1950.04958200455,"0",2,1,5
14,8,2,0.415079116821289,12.0160791873932,1952.04961109161,"0",2,6,5
14,8,1,0.581315040588379,14.0161261558533,1954.04965806007,"0",2,6,5
14,4,0,0.291912078857422,0.311240911483765,1960.41201519966,"0",0,0,5
14,20,1,0.548200845718384,2.01592993736267,1966.46664214134,"0",2,3,5
14,20,1,0.389364957809448,3.99941301345825,1968.45012497902,"0",1,4,5
14,20,1,0.481674909591675,6.01603007316589,1970.46674203873,"0",2,2,5
14,20,1,0.532420873641968,7.99944496154785,1972.45015716553,"0",0,4,5
14,20,1,0.472904920578003,9.99961996078491,1974.45033216476,"0",1,6,5
14,20,1,0.471024036407471,11.9996259212494,1976.45033812523,"0",0,2,5
14,20,2,0.898016214370728,14.0163240432739,1978.46703600883,"0",2,7,5
14,4,0,0.377255916595459,0.380691051483154,1984.89875197411,"0",1,2,5
14,20,1,0.539644002914429,1.99948215484619,1990.93405103683,"0",1,1,5
14,20,1,0.463803052902222,3.99943399429321,1992.9340031147,"0",0,2,5
14,20,1,0.998283863067627,5.9994912147522,1994.93406009674,"0",2,2,5
14,20,1,0.468817949295044,7.99952912330627,1996.93409705162,"0",1,0,5
14,20,1,0.408874034881592,9.9996190071106,1998.93418717384,"0",1,3,5
14,20,1,0.613677024841309,12.0160350799561,2000.95060420036,"0",2,7,5
14,20,1,0.49569296836853,13.9997940063477,2002.93436312675,"0",0,4,5
14,8,0,0.368342876434326,0.37276291847229,2009.35772800446,"0",1,1,5
14,4,0,0.23552393913269,0.239958047866821,2013.62556219101,"0",1,1,5
14,20,1,0.56518292427063,2.01539087295532,2019.66772913933,"0",2,6,5
14,20,1,0.45452094078064,3.99879908561707,2021.65113711357,"0",1,5,5
14,20,1,0.457484006881714,5.99909996986389,2023.65143799782,"0",0,2,5
14,20,1,0.515855073928833,7.99916291236877,2025.65150117874,"0",0,1,5
14,20,1,0.445300817489624,9.99923896789551,2027.65157604218,"0",0,2,5
14,20,1,0.55977988243103,11.9992949962616,2029.65163302422,"0",0,7,5
14,20,1,0.664018154144287,14.015820980072,2031.66816020012,"0",2,1,5
14,8,0,0.430876016616821,0.434629917144775,2038.17048001289,"0",1,5,5
14,20,1,0.546328067779541,1.9990119934082,2044.20195698738,"0",1,1,5
14,20,1,0.527306079864502,3.99918508529663,2046.2021291256,"0",1,2,5
14,20,1,0.455719947814941,5.99915790557861,2048.20210313797,"0",0,6,5
14,20,1,0.541347026824951,7.99928903579712,2050.20223402977,"0",1,7,5
14,20,1,0.557199001312256,9.99893689155579,2052.20188117027,"0",0,0,5
14,20,1,0.474133014678955,11.9989869594574,2054.20193219185,"0",0,7,5
14,20,1,0.565441846847534,14.0161321163177,2056.21907711029,"0",2,6,5
14,20,1,0.506592035293579,1.99913191795349,2064.26918911934,"0",1,3,5
14,20,1,0.391258955001831,3.9991569519043,2066.26921415329,"0",1,5,5
14,20,1,0.451894998550415,5.99917912483215,2068.2692360878,"0",1,6,5
14,20,1,0.41008186340332,7.99928092956543,2070.26933813095,"0",0,6,5
14,20,1,0.447379112243652,10.0160610675812,2072.28611803055,"0",2,4,5
14,20,1,0.343318223953247,11.9994370937347,2074.2694940567,"0",1,4,5
14,20,1,0.408051013946533,13.9994120597839,2076.26946806908,"0",0,6,5
14,4,0,0.322255849838257,0.326678037643433,2082.64720511436,"0",1,4,5
14,8,0,0.365949869155884,0.367712020874023,2087.05488610268,"0",2,0,5
14,8,0,0.349315881729126,0.35496997833252,2091.44191718102,"0",1,6,5
14,4,0,0.250053882598877,0.255430221557617,2095.72640514374,"0",1,7,5
14,20,1,0.468496084213257,1.99871492385864,2101.7531671524,"0",0,0,5
14,20,1,0.395421981811523,3.99912810325623,2103.75358009338,"0",1,4,5
14,20,1,0.53049898147583,6.01547002792358,2105.76992201805,"0",2,1,5
14,20,1,0.528865098953247,7.99938106536865,2107.7538330555,"0",0,2,5
14,20,1,0.49742603302002,10.0159471035004,2109.77039909363,"0",2,3,5
14,20,1,0.478705883026123,11.9992589950562,2111.75371098518,"0",0,0,5
14,20,1,0.517724990844727,13.9993739128113,2113.75382614136,"0",1,0,5
14,8,0,0.347275018692017,0.366625070571899,2120.17148709297,"0",0,1,5
14,8,0,0.293102025985718,0.312747001647949,2124.51783919334,"0",0,4,5
14,20,1,0.448446989059448,2.01565003395081,2130.57084202766,"0",2,1,5
14,20,2,0.415179014205933,4.01565599441528,2132.57084918022,"0",2,5,5
14,20,1,0.54831600189209,6.01553010940552,2134.57072305679,"0",2,3,5
14,20,1,0.730534076690674,8.01560115814209,2136.57079410553,"0",2,0,5
14,20,1,0.510406970977783,9.99919414520264,2138.55438709259,"0",1,5,5
14,20,1,0.581317901611328,11.9994080066681,2140.55460119247,"0",1,6,5
14,20,1,0.541050910949707,13.9990890026093,2142.55428218842,"0",0,4,5
14,4,0,0.333337068557739,0.352819919586182,2148.95855402946,"0",0,3,5
14,4,0,0.330498933792114,0.332252979278564,2153.32144999504,"0",2,4,5
14,20,1,0.47545599937439,1.99890208244324,2159.35492706299,"0",1,4,5
14,20,1,0.437372922897339,3.9990599155426,2161.35508513451,"0",1,7,5
14,20,1,0.448421955108643,6.01539397239685,2163.37141919136,"0",2,0,5
14,20,2,0.491055011749268,7.99878311157227,2165.35480809212,"0",1,2,5
14,20,1,0.408665180206299,9.99915409088135,2167.35517907143,"0",0,5,5
14,20,1,0.613874912261963,11.9989221096039,2169.35494709015,"0",0,6,5
14,20,1,0.459091901779175,13.999263048172,2171.35528802872,"0",0,1,5
10,8,1,0.999022006988525,1.99952411651611,2185.47241806984,"0",2,2,6
10,8,1,0.496976137161255,3.99952411651611,2187.47241806984,"0",1,3,6
10,8,2,0.631465911865234,6.01625204086304,2189.48914599419,"0",2,6,6
10,8,1,0.396405935287476,7.99961495399475,2191.47250914574,"0",1,3,6
10,8,1,0.497765064239502,10.0162601470947,2193.48915410042,"0",2,5,6
10,20,1,0.535248041152954,1.9989960193634,2205.53914403915,"0",0,0,6
10,20,1,0.512912034988403,3.99938702583313,2207.53953504562,"0",0,7,6
10,20,1,0.497973918914795,5.99914193153381,2209.53929018974,"0",0,2,6
10,20,1,0.637246131896973,7.99953603744507,2211.53968501091,"0",1,1,6
10,20,1,0.583652019500732,9.99960589408875,2213.5397541523,"0",1,4,6
10,4,0,0.332576036453247,0.33433198928833,2223.92532014847,"0",2,5,6
10,4,0,0.308890104293823,0.328028917312622,2232.28579497337,"0",0,6,6
10,8,1,0.615198135375977,2.01572895050049,2242.34041404724,"0",2,7,6
10,8,1,0.462820053100586,4.01580381393433,2244.34048914909,"0",2,6,6
10,8,1,0.498919010162354,5.99913096427917,2246.32381606102,"0",0,1,6
10,8,1,0.44567084312439,7.99922585487366,2248.32391214371,"0",0,6,6
10,8,1,0.51862096786499,9.99899792671204,2250.32368302345,"0",0,3,6
10,20,1,0.510376214981079,1.9991090297699,2262.37436008453,"0",1,3,6
10,20,1,0.589586973190308,3.99874496459961,2264.37399601936,"0",0,5,6
10,20,1,0.481497049331665,5.9988329410553,2266.37408399582,"0",0,2,6
10,20,1,0.692139148712158,7.99887895584106,2268.3741300106,"0",0,7,6
10,20,1,0.400408029556274,9.99919390678406,2270.37444519997,"0",0,3,6
10,4,0,0.320126056671143,0.33945894241333,2280.76519608498,"0",0,0,6
10,8,1,0.61520791053772,2.01566791534424,2290.80835199356,"0",2,4,6
10,8,1,0.437916040420532,3.99906086921692,2292.79174399376,"0",1,5,6
10,8,1,0.407232999801636,5.99911689758301,2294.7918009758,"0",1,7,6
10,8,1,0.360787868499756,7.99908590316772,2296.79176998138,"0",1,7,6
10,8,1,0.563479900360107,10.0155568122864,2298.80824112892,"0",2,1,6
10,8,0,0.264816045761108,0.284129858016968,2309.14304900169,"0",0,2,6
10,20,1,0.65495491027832,1.99921917915344,2319.17584109306,"0",1,0,6
10,20,1,0.477183103561401,3.9991340637207,2321.17575597763,"0",0,3,6
10,20,1,0.597465991973877,6.01594114303589,2323.19256305695,"0",2,2,6
10,20,1,0.415318965911865,8.01608514785767,2325.19270706177,"0",2,2,6
10,20,1,0.426825046539307,9.9993200302124,2327.17594218254,"0",1,4,6
10,4,0,0.282555103302002,0.284301042556763,2337.51087498665,"0",2,3,6
10,20,1,0.56597900390625,2.01557111740112,2347.55949807167,"0",2,5,6
10,20,1,0.431381940841675,4.01562595367432,2349.55955314636,"0",2,7,6
10,20,1,0.698170900344849,6.0160219669342,2351.55994915962,"0",2,6,6
10,20,1,0.503196954727173,7.99932312965393,2353.54325008392,"0",1,2,6
10,20,1,0.514900922775269,10.0161890983582,2355.56011605263,"0",2,0,6
10,8,0,0.3458571434021,0.366018056869507,2365.97737216949,"0",0,5,6
10,4,0,0.251334190368652,0.270482778549194,2374.28186416626,"0",0,2,6
10,20,1,0.536406993865967,1.99872517585754,2384.31048107147,"0",0,4,6
10,20,1,0.595231056213379,3.99913811683655,2386.31089401245,"0",1,0,6
10,20,1,0.429827213287354,5.99908113479614,2388.31083703041,"0",1,0,6
10,20,1,0.482600212097168,7.99916505813599,2390.31092119217,"0",0,2,6
10,20,1,0.645883083343506,9.99928021430969,2392.31103610992,"0",1,0,6
10,8,0,0.31128978729248,0.33051609992981,2402.69268107414,"0",0,0,6
10,20,1,0.474360942840576,1.99905586242676,2412.72807097435,"0",0,2,6
10,20,1,0.493287086486816,3.99885177612305,2414.72786712646,"0",0,1,6
10,20,1,0.611263990402222,5.99919080734253,2416.72820615768,"0",1,1,6
10,20,1,0.427838087081909,7.99925899505615,2418.72827410698,"0",1,2,6
10,20,1,0.596804857254028,10.0159637928009,2420.74497914314,"0",2,1,6
10,4,0,0.359038114547729,0.364374876022339,2431.16079807281,"0",1,7,6
10,4,0,0.342023134231567,0.361707925796509,2439.55817604065,"0",0,4,6
10,20,1,0.509160995483398,1.99840497970581,2449.59543013573,"0",0,1,6
10,20,2,0.600512981414795,3.99875712394714,2451.59578204155,"0",0,4,6
10,20,1,0.404439926147461,5.99851608276367,2453.59554100037,"0",0,1,6
10,20,1,0.37468695640564,7.99894404411316,2455.59596920013,"0",0,4,6
10,20,1,0.714826107025146,10.0157601833344,2457.61278510094,"0",2,4,6
10,8,0,0.29747200012207,0.316675901412964,2467.98060917854,"0",0,2,6
10,20,1,0.66242504119873,1.99960207939148,2478.01299500465,"0",1,0,6
10,20,1,0.614382982254028,4.01664400100708,2480.03003811836,"0",2,1,6
10,20,1,0.404550075531006,5.99980306625366,2482.01319599152,"0",1,5,6
10,20,1,0.377222061157227,8.10741496086121,2484.12080812454,"0",1,5,6
10,20,1,0.765696048736572,10.008061170578,2486.02145409584,"0",2,3,6
10,8,0,0.335188865661621,0.354484081268311,2496.42725205421,"0",0,0,6
10,4,0,0.242609024047852,0.246181964874268,2504.70219707489,"0",1,5,6
10,8,0,0.31606912612915,0.335591077804565,2513.07543706894,"0",0,5,6
10,4,0,0.283720970153809,0.28813099861145,2521.39493703842,"0",1,4,6
10,20,1,0.598778009414673,2.01572799682617,2531.43930101395,"0",2,3,6
10,20,1,0.440860033035278,3.99918699264526,2533.42276000977,"0",1,5,6
10,20,1,0.531098127365112,6.015869140625,2535.43944311142,"0",2,2,6
10,20,1,0.472042083740234,7.99923396110535,2537.42280817032,"0",0,6,6
10,20,1,0.454830884933472,9.99929094314575,2539.42286515236,"0",0,4,6
10,20,1,0.614720821380615,2.01546096801758,2551.48954820633,"0",2,0,6
10,20,1,0.527442932128906,3.99919414520264,2553.47328209877,"0",0,3,6
10,20,1,0.535381078720093,5.99921298027039,2555.47330117226,"0",0,7,6
10,20,1,0.394384860992432,7.99925804138184,2557.47334504128,"0",1,7,6
10,20,1,0.556133985519409,9.9992949962616,2559.47338318825,"0",1,2,6
10,8,0,0.2657151222229,0.267673969268799,2569.79231905937,"0",2,2,6
10,4,0,0.265921115875244,0.267667055130005,2578.09256410599,"0",2,5,6
10,4,0,0.244693994522095,0.249111175537109,2586.37424015999,"0",1,1,6
10,8,1,0.457588911056519,1.99905014038086,2596.40771102905,"0",1,5,6
10,8,1,0.48281192779541,3.99878811836243,2598.40744900703,"0",0,2,6
10,8,1,0.441576957702637,5.9991660118103,2600.40782618523,"0",0,5,6
10,8,1,0.52902889251709,7.99921107292175,2602.40787220001,"0",0,4,6
10,8,1,0.480630874633789,9.99931502342224,2604.40797615051,"0",1,7,6
