"Handling","Reward","Choice","Task.RT","Choice.RT","Experiment.Time","Trial.Outcome","Task.Type","Task.Setup","Block"
10,8,2,1.00003814697266,1.9992561340332,9.04283809661865,"0",1,7,1
10,8,1,0.478249073028564,3.99940991401672,11.0429940223694,"0",1,7,1
10,8,1,0.639299869537354,5.99880909919739,13.0423920154572,"0",0,4,1
10,8,1,0.731884002685547,7.99907302856445,15.0426549911499,"0",0,1,1
10,8,1,0.576503038406372,9.99948692321777,17.0430691242218,"0",0,0,1
10,20,1,0.779140949249268,2.01555585861206,29.1261150836945,"0",2,2,1
10,20,1,0.681485891342163,4.01587104797363,31.1264300346375,"0",2,7,1
10,20,1,0.730414152145386,6.01575088500977,33.1263101100922,"0",2,6,1
10,20,1,0.671633005142212,7.99897289276123,35.1095321178436,"0",1,4,1
10,20,1,0.64832592010498,10.015517950058,37.1260769367218,"0",2,3,1
10,8,1,0.582011938095093,2.01598906517029,49.1931009292603,"0",2,7,1
10,8,1,0.544778823852539,3.99895405769348,51.1760659217834,"0",0,3,1
10,8,1,0.725871086120605,5.99921011924744,53.1763219833374,"0",1,0,1
10,8,1,0.670677900314331,8.01580405235291,55.1929159164429,"0",1,2,1
10,8,1,0.714509963989258,10.0159151554108,57.193027973175,"0",2,1,1
10,20,1,0.791623115539551,1.99883913993835,69.2429599761963,"0",1,7,1
10,20,1,0.481368064880371,3.99882102012634,71.2429420948029,"0",1,4,1
10,20,1,0.545419931411743,5.99860215187073,73.2427229881287,"0",1,2,1
10,20,1,0.598437070846558,8.01496911048889,75.2590889930725,"0",2,1,1
10,20,1,0.582962989807129,9.99880504608154,77.2429249286652,"0",0,4,1
10,4,1,0.747334957122803,1.99971199035645,89.2929220199585,"0",1,7,1
10,4,1,0.456974029541016,3.99941182136536,91.292622089386,"0",1,4,1
10,4,1,0.394147872924805,5.99961686134338,93.292827129364,"0",1,4,1
10,4,1,0.6684250831604,7.99975895881653,95.2929699420929,"0",0,5,1
10,4,2,0.996676921844482,10.0163958072662,97.3096060752869,"0",2,7,1
10,4,1,0.598646879196167,1.99933099746704,109.359590053558,"0",1,5,1
10,4,1,0.681823968887329,4.01580810546875,111.376065015793,"0",2,2,1
10,4,1,0.643127918243408,5.99926495552063,113.359524011612,"0",0,2,1
10,4,1,0.548771858215332,7.99926018714905,115.359518051147,"0",1,0,1
10,4,1,0.513372182846069,10.0156061649323,117.375864982605,"0",2,5,1
10,20,1,0.643250942230225,1.99952816963196,129.426331996918,"0",1,5,1
10,20,1,0.63575291633606,3.99952220916748,131.426325082779,"0",0,5,1
10,20,1,0.514037847518921,5.99923706054688,133.426041126251,"0",1,4,1
10,20,1,0.535197973251343,7.99921011924744,135.426013946533,"0",1,1,1
10,20,1,0.614403963088989,10.0161311626434,137.442935943604,"0",2,0,1
10,20,1,0.60886812210083,1.99937319755554,149.493005037308,"0",0,3,1
10,20,1,0.846007108688354,3.99925303459167,151.492885112762,"0",0,2,1
10,20,1,0.468729019165039,5.99897313117981,153.492604017258,"0",1,3,1
10,20,1,0.507888078689575,7.9991991519928,155.492831945419,"0",1,2,1
10,20,1,0.948008060455322,10.015202999115,157.508835077286,"0",2,7,1
10,8,1,0.618355989456177,1.99917984008789,169.559560060501,"0",0,3,1
10,8,1,0.518787860870361,3.99914884567261,171.55953001976,"0",1,0,1
10,8,1,0.746961116790771,6.01575899124146,173.576138973236,"0",2,4,1
10,8,1,0.814934968948364,8.01586294174194,175.576244115829,"0",2,6,1
10,8,1,0.730715036392212,10.0160479545593,177.576427936554,"0",2,6,1
10,8,1,0.69879412651062,2.01625800132751,189.643124103546,"0",2,0,1
10,8,1,0.812980890274048,4.01540398597717,191.642270088196,"0",2,1,1
10,8,1,0.621813058853149,5.99873995780945,193.625606060028,"0",1,0,1
10,8,1,0.6477210521698,8.01579999923706,195.642666101456,"0",2,2,1
10,8,1,0.508219957351685,9.99937415122986,197.62624001503,"0",1,3,1
10,4,1,0.915267944335938,2.01585412025452,209.692857027054,"0",2,4,1
10,4,1,0.758532047271729,3.99892497062683,211.675928115845,"0",0,7,1
10,4,2,1.00011301040649,5.99846410751343,213.675467967987,"0",0,5,1
10,4,2,1.00005292892456,7.99899196624756,215.67599606514,"0",1,7,1
10,4,2,1.00005793571472,1.99898505210876,225.709316015244,"0",1,0,1
10,4,2,1.00009703636169,3.99900197982788,227.709332942963,"0",1,5,1
10,4,2,0.996877193450928,2.01563906669617,237.759505033493,"0",2,2,1
10,4,2,0.996273994445801,4.01549386978149,239.759360074997,"0",2,5,1
10,20,2,1.00010108947754,1.99896001815796,249.792655944824,"0",0,1,1
10,20,2,1.00009894371033,3.99865007400513,251.792346000671,"0",1,5,1
10,8,2,1.00009107589722,1.99922108650208,261.826205015182,"0",0,7,1
10,8,2,1.0000901222229,3.99895405769348,263.825937986374,"0",1,3,1
10,20,2,1.00005888938904,1.99887990951538,273.85923910141,"0",0,0,1
10,20,2,0.996942043304443,4.01579189300537,275.876152038574,"0",2,5,1
10,4,2,0.997622966766357,2.00024700164795,285.909296035767,"0",2,7,1
10,4,2,1.00007200241089,4.00024580955505,287.909295082092,"0",0,3,1
10,8,2,1.00009393692017,1.99913287162781,297.942840099335,"0",1,5,1
10,8,2,1.00008296966553,3.99897503852844,299.942682027817,"0",0,1,1
10,8,2,1.00010585784912,1.99863505363464,309.975903987885,"0",1,4,1
10,8,2,1.00008106231689,3.99874496459961,311.976014137268,"0",0,2,1
10,8,2,1.00009393692017,1.99899005889893,322.009508132935,"0",0,4,1
10,8,2,1.00007104873657,3.9983971118927,324.008913993835,"0",0,1,1
10,20,2,0.997277975082397,2.01571297645569,334.059418916702,"0",2,6,1
10,20,2,1.00011014938354,3.99891304969788,336.042618989944,"0",0,3,1
10,4,2,1.00007891654968,1.99863815307617,346.075680971146,"0",0,5,1
10,4,2,1.00007200241089,3.99893021583557,348.075972080231,"0",0,3,1
10,4,2,0.996937036514282,2.01587104797363,358.126137971878,"0",2,2,1
10,4,2,0.996651887893677,4.01566195487976,360.12592792511,"0",2,7,1
10,20,2,0.996795892715454,2.01535081863403,370.176124095917,"0",2,3,1
10,20,2,0.996035099029541,4.01536989212036,372.176142930984,"0",2,3,1
10,8,2,0.997528076171875,2.01612305641174,382.226082086563,"0",2,2,1
10,8,2,0.996772050857544,4.01573085784912,384.225690126419,"0",2,0,1
10,8,2,1.00006794929504,1.99877500534058,394.259191989899,"0",1,6,1
10,8,2,1.00011706352234,3.99887990951538,396.259297132492,"0",0,2,1
10,4,2,1.00009703636169,1.99927687644958,406.292761087418,"0",0,4,1
10,4,2,1.00005507469177,3.99909782409668,408.29258108139,"0",1,0,1
10,4,2,1.00008511543274,1.99906206130981,418.326086997986,"0",1,0,1
10,4,2,1.00005602836609,3.99905300140381,420.326076984406,"0",1,6,1
14,20,2,1.00008606910706,1.99992799758911,465.426079034805,"0",0,0,2
14,20,2,1.00006008148193,3.99974179267883,467.425893068314,"0",0,0,2
14,20,1,0.648499965667725,2.01613998413086,473.476176977158,"0",2,4,2
14,20,1,0.623816013336182,3.99931383132935,475.459352016449,"0",1,7,2
14,20,1,0.539456844329834,5.99916887283325,477.459206104279,"0",0,3,2
14,20,1,0.435112953186035,7.99910402297974,479.459141016006,"0",0,3,2
14,20,1,0.534983158111572,9.99938583374023,481.459423065186,"0",1,7,2
14,20,1,0.563857078552246,12.0160019397736,483.476040124893,"0",2,1,2
14,20,1,0.597667932510376,14.0159199237823,485.475958108902,"0",2,5,2
14,8,1,0.698896884918213,2.0002429485321,493.525852918625,"0",2,3,2
14,8,1,0.641143083572388,3.99963808059692,495.52524805069,"0",0,1,2
14,8,1,0.869148969650269,5.99964284896851,497.52525305748,"0",0,2,2
14,8,1,0.590698003768921,8.00019907951355,499.525809049606,"0",1,6,2
14,8,1,0.746438980102539,9.99966597557068,501.525277137756,"0",0,3,2
14,8,1,0.60468602180481,12.0003349781036,503.525946140289,"0",0,7,2
14,8,1,0.575149059295654,14.0002398490906,505.525850057602,"0",1,5,2
14,8,1,0.597999811172485,2.01649904251099,513.593101978302,"0",2,7,2
14,8,1,0.679744005203247,4.01615810394287,515.592761039734,"0",2,6,2
14,8,1,0.544797897338867,5.9991979598999,517.575799942017,"0",1,7,2
14,8,1,0.596737861633301,8.01607489585876,519.592678070068,"0",2,5,2
14,8,1,0.547693967819214,10.0159010887146,521.592504024506,"0",2,6,2
14,8,1,0.565218925476074,12.0155470371246,523.592149972916,"0",2,5,2
14,8,1,0.679717063903809,14.0161099433899,525.592713117599,"0",2,4,2
14,4,1,0.580782890319824,2.01600813865662,533.659482955933,"0",2,1,2
14,4,1,0.536291837692261,3.99923205375671,535.642707109451,"0",1,2,2
14,4,1,0.546823978424072,6.01582813262939,537.659304141998,"0",2,3,2
14,4,1,0.816118955612183,7.99922108650208,539.642697095871,"0",0,4,2
14,4,1,0.954908132553101,9.99922704696655,541.642703056335,"0",1,5,2
14,4,1,0.575958967208862,11.9989452362061,543.642419099808,"0",1,6,2
14,4,1,0.580801010131836,14.0159020423889,545.659377098083,"0",2,4,2
14,4,1,0.681882858276367,2.01601099967957,553.726122140884,"0",2,5,2
14,4,1,0.686624050140381,3.99898791313171,555.709096908569,"0",0,1,2
14,4,1,0.511626005172729,5.9989869594574,557.709096908569,"0",1,4,2
14,4,1,0.664525032043457,8.01590895652771,559.726017951965,"0",2,2,2
14,4,1,0.529053926467896,9.99908399581909,561.709195137024,"0",1,4,2
14,4,1,0.548449993133545,11.9992470741272,563.709357023239,"0",0,1,2
14,4,1,0.478996992111206,13.9992399215698,565.7093501091,"0",0,4,2
14,8,1,0.660903930664062,1.99925398826599,573.759280920029,"0",0,5,2
14,8,1,0.521928071975708,3.99939584732056,575.759422063828,"0",0,5,2
14,8,1,0.598105907440186,6.01574087142944,577.775767087936,"0",2,5,2
14,8,1,0.578486919403076,7.9993200302124,579.759346961975,"0",0,2,2
14,8,1,0.614964008331299,10.0153520107269,581.775377988815,"0",2,2,2
14,8,1,0.651561975479126,11.9990968704224,583.759124040604,"0",0,5,2
14,8,1,0.580523014068604,14.0159049034119,585.775932073593,"0",2,4,2
14,20,1,0.719759941101074,1.99935078620911,593.82586312294,"0",1,6,2
14,20,1,0.662612915039062,3.99956583976746,595.826079130173,"0",0,7,2
14,20,1,0.506307125091553,5.99931192398071,597.825824975967,"0",0,3,2
14,20,1,0.88248085975647,7.99942398071289,599.8259370327,"0",1,6,2
14,20,1,0.56207799911499,9.99940180778503,601.825916051865,"0",1,7,2
14,20,2,0.996531009674072,12.0158948898315,603.842407941818,"0",2,4,2
14,20,1,0.598074913024902,13.9991037845612,605.825616121292,"0",0,1,2
14,4,1,0.631857872009277,2.01604604721069,613.892817974091,"0",2,2,2
14,4,1,0.631405115127563,4.01592612266541,615.89269900322,"0",2,2,2
14,4,1,0.777769088745117,5.99916696548462,617.875940084457,"0",1,1,2
14,4,1,0.434908866882324,7.99920296669006,619.875976085663,"0",0,3,2
14,4,1,0.525336980819702,9.99916100502014,621.875934123993,"0",1,5,2
14,4,1,0.55659294128418,11.9989759922028,623.875747919083,"0",1,6,2
14,4,1,0.487835884094238,13.999330997467,625.876102924347,"0",0,1,2
14,8,1,0.649004936218262,2.01599812507629,633.942384958267,"0",2,7,2
14,8,1,0.54269003868103,3.99939608573914,635.92578291893,"0",1,3,2
14,8,1,0.530225038528442,6.01604819297791,637.942434072495,"0",2,3,2
14,8,1,0.60614800453186,7.9993531703949,639.925740003586,"0",0,4,2
14,8,1,0.492769002914429,9.99932718276978,641.925714015961,"0",1,5,2
14,8,1,0.463238954544067,11.9995400905609,643.925926923752,"0",1,0,2
14,8,1,0.549263000488281,13.9994010925293,645.92578792572,"0",1,2,2
14,4,1,0.783581972122192,1.99916100502014,653.975801944733,"0",0,1,2
14,4,1,0.631454944610596,4.01619100570679,655.992831945419,"0",2,1,2
14,4,1,0.494820117950439,5.99938988685608,657.976030111313,"0",1,3,2
14,4,2,0.996687889099121,8.01594185829163,659.992583036423,"0",2,2,2
14,4,1,0.565969944000244,9.99931287765503,661.975954055786,"0",1,6,2
14,4,1,0.731720924377441,12.0160109996796,663.992651939392,"0",2,0,2
14,4,1,0.601431846618652,13.9993999004364,665.976040124893,"0",1,1,2
14,20,1,0.831678152084351,2.01605796813965,674.042607069016,"0",2,5,2
14,20,1,0.696685075759888,4.01610207557678,676.042652130127,"0",2,7,2
14,20,1,0.647875070571899,6.01587009429932,678.042418956757,"0",2,5,2
14,20,1,0.548619985580444,8.01595401763916,680.042503118515,"0",2,4,2
14,20,1,0.836212873458862,9.99954700469971,682.026094913483,"0",1,0,2
14,20,1,0.524456977844238,11.9994211196899,684.025969982147,"0",0,1,2
14,20,1,0.424158096313477,13.9993250370026,686.025875091553,"0",1,5,2
14,8,1,0.715620994567871,2.01601195335388,694.09260392189,"0",2,6,2
14,8,1,0.591322183609009,3.99935603141785,696.07594704628,"0",1,0,2
14,8,1,0.747527122497559,6.01595497131348,698.092545986176,"0",2,4,2
14,8,1,0.589488983154297,7.99927997589111,700.075871944427,"0",0,0,2
14,8,1,0.466140985488892,9.99872803688049,702.075319051743,"0",0,3,2
14,8,1,0.581700086593628,12.0158319473267,704.092422962189,"0",2,6,2
14,8,1,0.543948173522949,13.9992890357971,706.075881004333,"0",1,2,2
14,4,0,0.430567979812622,0.432301998138428,712.559096097946,"0",2,2,2
14,20,1,0.649042844772339,2.01631307601929,718.609509944916,"0",2,0,2
14,20,1,0.664915084838867,4.01588916778564,720.609085083008,"0",2,7,2
14,20,2,1.00004291534424,5.99920296669006,722.592400074005,"0",0,3,2
14,20,1,0.523833036422729,7.99911403656006,724.592311143875,"0",0,5,2
14,20,1,0.715062141418457,9.99934411048889,726.592540979385,"0",1,3,2
14,20,1,0.567950963973999,11.999195098877,728.592391967773,"0",0,6,2
14,20,1,0.418596982955933,13.9993901252747,730.592586994171,"0",1,5,2
14,4,1,0.648452997207642,2.01592206954956,738.659296989441,"0",2,1,2
14,4,1,0.516210079193115,3.99927496910095,740.642651081085,"0",1,5,2
14,4,1,0.538148164749146,5.99898600578308,742.642359972,"0",1,6,2
14,4,1,0.549264192581177,7.99924802780151,744.642622947693,"0",0,2,2
14,4,1,0.512314796447754,9.99900794029236,746.642383098602,"0",0,2,2
14,4,1,0.531315088272095,12.015881061554,748.65925693512,"0",2,4,2
14,4,1,0.513728857040405,14.0158770084381,750.659251928329,"0",2,4,2
14,20,1,0.810060977935791,1.99949097633362,758.709346055984,"0",0,2,2
14,20,1,0.532635927200317,3.99937987327576,760.70923614502,"0",1,4,2
14,20,1,0.509802103042603,5.99946188926697,762.709319114685,"0",1,3,2
14,20,1,0.439654111862183,7.99939894676208,764.709255933762,"0",1,7,2
14,20,1,0.532510995864868,9.99936079978943,766.709217071533,"0",1,2,2
14,20,1,0.412202119827271,11.9994628429413,768.709319114685,"0",1,3,2
14,20,2,1.00007104873657,13.9994029998779,770.709259986877,"0",0,5,2
14,8,1,0.560308933258057,1.999675989151,778.759253025055,"0",1,5,2
14,8,1,0.447824954986572,3.99966788291931,780.759246110916,"0",1,0,2
14,8,1,0.367761850357056,5.99958801269531,782.759165048599,"0",1,3,2
14,8,1,0.681793928146362,8.01631689071655,784.77589392662,"0",2,5,2
14,8,1,0.520037174224854,9.99947094917297,786.759047985077,"0",0,3,2
14,8,1,0.551867008209229,11.9996628761292,788.759239912033,"0",0,3,2
14,8,1,0.591497898101807,13.9996719360352,790.759249925613,"0",1,7,2
14,4,1,0.71555495262146,2.0169689655304,798.826690912247,"0",2,3,2
14,4,1,0.696238040924072,4.01619505882263,800.825917005539,"0",2,5,2
14,4,1,0.610579013824463,5.99951410293579,802.809237003326,"0",1,4,2
14,4,1,0.6600182056427,7.9995219707489,804.809245109558,"0",0,2,2
14,4,1,0.571980953216553,9.99946308135986,806.80918598175,"0",0,1,2
14,4,1,0.524867057800293,11.9995150566101,808.809237003326,"0",0,6,2
14,4,1,0.879277944564819,14.0161108970642,810.825833082199,"0",2,6,2
14,20,1,0.628983974456787,1.9994158744812,818.875944137573,"0",0,0,2
14,20,1,0.69750714302063,4.01598596572876,820.892514944077,"0",2,2,2
14,20,1,0.593765020370483,5.99930286407471,822.875831127167,"0",0,1,2
14,20,1,0.537028789520264,7.99940896034241,824.875936985016,"0",1,5,2
14,20,1,0.456830978393555,9.99911284446716,826.875641107559,"0",1,7,2
14,20,1,0.587642908096313,11.9993469715118,828.875874996185,"0",0,3,2
14,20,1,0.580623865127563,14.0152559280396,830.891783952713,"0",2,3,2
14,4,0,0.469434022903442,0.489037036895752,837.432223081589,"0",0,6,2
14,8,1,0.681784868240356,2.01558113098145,843.475259065628,"0",2,1,2
14,8,1,0.615723848342896,4.01625514030457,845.475934028625,"0",2,3,2
14,8,1,0.553179025650024,5.99954700469971,847.459226131439,"0",1,7,2
14,8,1,0.530862092971802,7.99951004981995,849.459190130234,"0",1,5,2
14,8,1,0.597787141799927,9.99951314926147,851.459192037582,"0",0,6,2
14,8,1,0.513181924819946,11.9994549751282,853.459134101868,"0",1,4,2
14,8,1,0.647845983505249,14.0160570144653,855.475736141205,"0",2,3,2
14,8,1,0.847287893295288,2.01550698280334,863.54227399826,"0",2,7,2
14,8,1,0.625844955444336,3.99875497817993,865.525521993637,"0",0,6,2
14,8,1,0.510412931442261,5.99848580360413,867.525252103806,"0",0,0,2
14,8,1,0.514880180358887,7.99906396865845,869.52583193779,"0",0,3,2
14,8,1,0.43361496925354,9.99888181686401,871.52564907074,"0",1,4,2
14,8,1,0.565413951873779,12.0155889987946,873.542356014252,"0",2,7,2
14,8,1,0.558911800384521,13.9990689754486,875.52583694458,"0",0,2,2
2,4,0,0.468826055526733,0.488222122192383,888.865044116974,"0",0,3,3
2,20,1,0.909389019012451,1.9988842010498,906.892239093781,"0",0,4,3
2,20,1,0.555845975875854,1.99887919425964,926.942270040512,"0",0,4,3
2,4,1,0.720192193984985,1.99933314323425,946.992470979691,"0",1,0,3
2,8,1,0.509662866592407,1.99928212165833,967.04226899147,"0",0,6,3
2,8,1,0.692724943161011,1.9989058971405,987.092253923416,"0",1,1,3
2,4,1,0.598258018493652,2.0157151222229,1007.15879797935,"0",2,5,3
2,8,1,0.665317058563232,2.01542115211487,1027.22535800934,"0",2,3,3
2,20,1,0.660921096801758,1.99920511245728,1047.27549004555,"0",1,6,3
2,4,1,0.632329940795898,2.01608204841614,1067.34246397018,"0",2,7,3
2,8,1,0.575314044952393,1.99925184249878,1087.39243507385,"0",1,0,3
2,20,1,0.715214014053345,2.01555013656616,1107.45878601074,"0",2,7,3
2,8,1,0.964794874191284,2.01651287078857,1127.5254740715,"0",2,6,3
2,4,1,0.669122934341431,1.99916386604309,1147.57584810257,"0",0,1,3
2,8,1,0.543170928955078,1.99926900863647,1167.6256980896,"0",0,1,3
2,4,1,0.692157983779907,1.9993360042572,1187.67547702789,"0",0,3,3
2,20,1,0.931432962417603,2.01576590538025,1207.74230694771,"0",2,0,3
2,20,1,0.517254114151001,1.99948406219482,1227.79232907295,"0",0,3,3
2,4,1,0.647900819778442,2.01575493812561,1247.92557501793,"0",2,0,3
2,20,1,0.818660974502563,1.9992561340332,1267.97553896904,"0",1,5,3
2,8,1,0.598345994949341,2.01556992530823,1288.0420589447,"0",2,6,3
10,4,0,0.293781995773315,0.313488960266113,1330.82327008247,"0",0,2,4
10,8,1,0.544552087783813,1.99879693984985,1340.85831093788,"0",0,3,4
10,8,1,0.506934881210327,3.99940896034241,1342.85892295837,"0",0,2,4
10,8,2,0.513172149658203,6.01583504676819,1344.8753490448,"0",2,0,4
10,8,1,0.662572145462036,7.99910688400269,1346.85862112045,"0",0,3,4
10,8,1,0.864821910858154,10.0161008834839,1348.87561511993,"0",2,1,4
10,4,0,0.328284978866577,0.331177949905396,1359.25727200508,"0",1,0,4
10,8,1,0.564671039581299,1.99880886077881,1369.29201006889,"0",0,2,4
10,8,1,0.549224853515625,3.99879884719849,1371.29200005531,"0",1,0,4
10,8,1,0.448261976242065,5.9986469745636,1373.29184699059,"0",0,6,4
10,8,1,0.665326118469238,8.01520490646362,1375.30840611458,"0",2,6,4
10,8,1,0.552736043930054,9.99900698661804,1377.29220890999,"0",0,4,4
10,20,1,0.58194899559021,1.9990119934082,1389.34197711945,"0",0,2,4
10,20,1,0.561432123184204,3.9993269443512,1391.34229207039,"0",0,7,4
10,20,1,0.503438949584961,5.99903106689453,1393.34199595451,"0",0,1,4
10,20,1,0.542259931564331,7.99902510643005,1395.34198999405,"0",0,4,4
10,20,1,0.465874910354614,9.99904608726501,1397.34201097488,"0",0,1,4
10,20,1,0.570137977600098,1.99925708770752,1409.39200997353,"0",1,5,4
10,20,1,0.515115976333618,4.01583909988403,1411.40859103203,"0",2,6,4
10,20,1,0.648002862930298,6.01552414894104,1413.40827608109,"0",2,7,4
10,20,1,0.781008005142212,8.0161030292511,1415.40885591507,"0",2,4,4
10,20,1,0.847872972488403,10.0161261558533,1417.40887999535,"0",2,0,4
10,4,0,0.273944139480591,0.278364896774292,1427.73770999908,"0",1,4,4
10,20,1,0.585273027420044,1.99941110610962,1437.77552103996,"0",0,3,4
10,20,1,0.781106948852539,4.01606202125549,1439.79217290878,"0",2,4,4
10,20,1,0.424696922302246,5.99937891960144,1441.77549004555,"0",1,4,4
10,20,1,0.592363119125366,7.99940800666809,1443.77551913261,"0",1,1,4
10,20,1,0.615025997161865,10.0158200263977,1445.79192996025,"0",2,3,4
10,4,0,0.317393064498901,0.336554050445557,1456.17951893806,"0",0,2,4
10,20,1,0.727267980575562,1.99918699264526,1466.20883393288,"0",1,0,4
10,20,1,0.492969989776611,3.99918389320374,1468.20883202553,"0",1,6,4
10,20,1,0.475396871566772,5.99920392036438,1470.20885205269,"0",1,3,4
10,20,1,0.429260015487671,7.99917697906494,1472.20882511139,"0",1,0,4
10,20,1,0.848145961761475,10.015860080719,1474.22550797462,"0",2,5,4
10,8,1,0.551131963729858,1.99898600578308,1486.27528595924,"0",0,3,4
10,8,1,0.614392995834351,4.01589488983154,1488.29219508171,"0",2,0,4
10,8,1,0.697366952896118,6.01578307151794,1490.29208397865,"0",2,4,4
10,8,1,0.482404947280884,7.9991660118103,1492.27546691895,"0",1,3,4
10,8,1,0.463685989379883,9.99938106536865,1494.27568101883,"0",0,1,4
10,8,1,0.534447908401489,1.99937295913696,1506.3254609108,"0",0,1,4
10,8,2,0.964514970779419,4.01590204238892,1508.34198904037,"0",2,6,4
10,8,1,0.647901058197021,6.0150249004364,1510.34111213684,"0",2,2,4
10,8,1,0.990462064743042,7.99917984008789,1512.32526612282,"0",0,2,4
10,8,1,0.656383991241455,9.99933290481567,1514.32542014122,"0",1,1,4
10,8,1,0.628513813018799,1.99923014640808,1526.37524199486,"0",0,4,4
10,8,1,0.485302925109863,3.99943113327026,1528.37544298172,"0",0,7,4
10,8,1,0.663707971572876,6.01590013504028,1530.39191198349,"0",2,5,4
10,8,1,0.728361129760742,7.99945211410522,1532.37546396255,"0",1,2,4
10,8,1,0.96448802947998,10.0161299705505,1534.39214301109,"0",2,7,4
10,20,1,0.521512985229492,1.99936509132385,1546.44204211235,"0",0,0,4
10,20,1,0.545445203781128,3.99902820587158,1548.44170403481,"0",0,1,4
10,20,1,0.423841953277588,5.99923300743103,1550.44190812111,"0",0,7,4
10,20,1,0.460549116134644,7.99934101104736,1552.4420170784,"0",0,4,4
10,20,1,0.528011083602905,9.99939107894897,1554.44206809998,"0",1,0,4
10,4,0,0.266005039215088,0.267729997634888,1564.76045107841,"0",2,3,4
10,4,1,0.589647054672241,1.99872398376465,1574.79170799255,"0",1,7,4
10,4,1,0.519264936447144,3.99890089035034,1576.79188394547,"0",1,2,4
10,4,1,0.476513862609863,5.99903297424316,1578.79201698303,"0",0,7,4
10,4,1,0.434739112854004,7.99915099143982,1580.7921359539,"0",1,5,4
10,4,1,0.521336078643799,9.99891996383667,1582.79190397263,"0",0,7,4
10,20,1,0.629551887512207,1.99874901771545,1594.84148693085,"0",0,3,4
10,20,1,0.569259881973267,3.99920105934143,1596.84193897247,"0",1,3,4
10,20,1,0.564332008361816,6.01598906517029,1598.8587269783,"0",2,5,4
10,20,1,0.596606016159058,8.01597905158997,1600.8587179184,"0",2,4,4
10,20,1,0.629829883575439,10.0160269737244,1602.85876607895,"0",2,1,4
10,8,1,0.574299097061157,1.99930500984192,1614.90884804726,"0",0,4,4
10,8,1,0.550693988800049,3.99898290634155,1616.90852594376,"0",1,2,4
10,8,1,0.425204992294312,5.99922490119934,1618.90876913071,"0",1,5,4
10,8,1,0.534175872802734,7.99908781051636,1620.90863108635,"0",1,1,4
10,8,1,0.63077712059021,10.0158779621124,1622.9254219532,"0",2,3,4
10,8,1,0.544847965240479,1.99930191040039,1634.9753010273,"0",0,1,4
10,8,1,0.63080883026123,4.01609110832214,1636.99208903313,"0",2,7,4
10,8,1,0.72999382019043,6.01603603363037,1638.99203491211,"0",2,2,4
10,8,1,0.691092014312744,7.99938797950745,1640.97538614273,"0",0,0,4
10,8,1,0.614792108535767,9.99939894676208,1642.97539806366,"0",1,5,4
10,4,0,0.246402025222778,0.26547384262085,1653.29150795937,"0",0,1,4
10,4,0,0.299127817153931,0.300993204116821,1661.62720608711,"0",2,5,4
10,20,1,0.587594985961914,1.99904704093933,1671.65858602524,"0",1,3,4
10,20,1,0.622411012649536,3.99916291236877,1673.65870213509,"0",0,3,4
10,20,1,0.530551910400391,6.01563596725464,1675.67517495155,"0",2,3,4
10,20,1,0.49534010887146,7.99879503250122,1677.6583340168,"0",1,5,4
10,20,1,0.515067100524902,10.0157809257507,1679.67532110214,"0",2,6,4
10,20,1,0.615138053894043,2.01576209068298,1691.74187994003,"0",2,3,4
10,20,1,0.433130979537964,3.99864101409912,1693.72475910187,"0",1,4,4
10,20,1,0.424373865127563,5.99910998344421,1695.72522711754,"0",1,5,4
10,20,1,0.498387098312378,8.0156672000885,1697.74178409576,"0",2,2,4
10,20,2,0.579594850540161,9.99898314476013,1699.72510099411,"0",0,2,4
10,8,1,0.529567003250122,1.99927091598511,1711.77536010742,"0",1,3,4
10,8,1,0.564001083374023,4.01591396331787,1713.79200196266,"0",2,3,4
10,8,1,0.409732103347778,5.99930500984192,1715.77539300919,"0",1,4,4
10,8,1,0.615925073623657,7.99924802780151,1717.77533698082,"0",0,2,4
10,8,1,0.581641912460327,9.9991090297699,1719.77519702911,"0",1,7,4
10,4,0,0.430685997009277,0.433993816375732,1730.25987410545,"0",1,5,4
10,4,0,0.311269998550415,0.314171075820923,1738.60711097717,"0",1,0,4
14,8,0,0.0854558944702148,0.105010032653809,1752.99712395668,"0",0,3,5
14,4,0,0.28560996055603,0.288890838623047,1757.31501913071,"0",1,5,5
14,20,1,0.50975489616394,2.00019001960754,1763.34185099602,"0",0,6,5
14,20,1,0.381407976150513,4.00011205673218,1765.34177303314,"0",0,4,5
14,20,1,0.598269939422607,6.00039196014404,1767.34205293655,"0",2,7,5
14,20,1,0.469451904296875,8.00040984153748,1769.34207105637,"0",0,6,5
14,20,1,0.357580184936523,10.0003390312195,1771.3420009613,"0",0,4,5
14,20,1,0.781224966049194,12.0001399517059,1773.34180092812,"0",2,5,5
14,20,1,0.597587108612061,14.0003719329834,1775.34203290939,"0",2,1,5
14,8,0,0.674011945724487,0.679403066635132,1782.072067976,"0",1,7,5
14,20,1,0.542704105377197,1.99926686286926,1788.10877609253,"0",1,7,5
14,20,1,0.513499975204468,3.99873805046082,1790.1082470417,"0",0,1,5
14,20,1,0.51699686050415,5.99893593788147,1792.10844492912,"0",1,7,5
14,20,1,0.359564065933228,7.99917888641357,1794.10868906975,"0",1,3,5
14,20,1,0.553650856018066,9.99911689758301,1796.10862708092,"0",1,1,5
14,20,2,0.996866941452026,12.0158309936523,1798.12534093857,"0",2,6,5
14,20,1,0.515273094177246,13.999135017395,1800.10864496231,"0",1,3,5
14,4,0,0.298737049102783,0.300482988357544,1806.45960593224,"0",2,3,5
14,8,0,0.253150939941406,0.272563934326172,1810.7652349472,"0",0,1,5
14,8,1,0.497164011001587,1.99917101860046,1816.79193711281,"0",1,4,5
14,8,1,0.520545959472656,3.99899911880493,1818.79176402092,"0",1,0,5
14,8,1,0.573094844818115,5.99926805496216,1820.79203295708,"0",1,2,5
14,8,1,0.453791856765747,7.99915504455566,1822.79191994667,"0",1,7,5
14,8,1,0.497469902038574,10.0151619911194,1824.80792713165,"0",2,5,5
14,8,1,0.459603071212769,11.9989941120148,1826.79175901413,"0",0,1,5
14,8,1,0.480135917663574,13.9992120265961,1828.79197692871,"0",1,1,5
14,20,1,0.730319976806641,1.99849200248718,1836.84109711647,"0",0,5,5
14,20,2,1.00004887580872,3.9987518787384,1838.8413541317,"0",0,2,5
14,20,1,0.698029041290283,6.01579785346985,1840.8584010601,"0",2,5,5
14,20,1,0.682052135467529,8.01601099967957,1842.85861492157,"0",2,6,5
14,20,1,0.631604909896851,9.99933385848999,1844.8419380188,"0",0,7,5
14,20,1,0.714938163757324,12.0160028934479,1846.85860705376,"0",2,1,5
14,20,1,0.531320095062256,14.0154609680176,1848.85806393623,"0",2,0,5
14,4,0,0.295415878295898,0.314831018447876,1855.22422194481,"0",0,3,5
14,20,1,0.554888963699341,1.9993691444397,1861.25889992714,"0",0,3,5
14,20,1,0.629794120788574,4.01571416854858,1863.27524495125,"0",2,2,5
14,20,1,0.68174409866333,6.01604509353638,1865.27557611465,"0",2,7,5
14,20,1,0.686127901077271,7.99911022186279,1867.25864100456,"0",0,7,5
14,20,1,0.66457200050354,9.99875617027283,1869.2582859993,"0",1,6,5
14,20,1,0.493576049804688,11.999055147171,1871.2585849762,"0",1,5,5
14,20,1,0.545857191085815,13.9987862110138,1873.25831604004,"0",0,3,5
14,4,0,0.299312114715576,0.301169157028198,1879.61042404175,"0",2,1,5
14,4,0,0.288444995880127,0.307916879653931,1883.9506649971,"0",0,3,5
14,8,2,1.00006580352783,1.99927282333374,1889.97529506683,"0",0,5,5
14,8,1,0.605848073959351,3.99906778335571,1891.97508907318,"0",0,6,5
14,8,1,0.519906044006348,5.99928879737854,1893.9753100872,"0",1,6,5
14,8,1,0.556446075439453,7.99899196624756,1895.97501301765,"0",0,5,5
14,8,1,0.507823944091797,9.99873280525208,1897.97475409508,"0",0,3,5
14,8,1,0.647393941879272,12.0158607959747,1899.9918820858,"0",2,3,5
14,8,1,0.613152027130127,13.9992108345032,1901.975233078,"0",0,0,5
14,8,0,0.316483974456787,0.318227052688599,1908.3438129425,"0",2,4,5
14,4,0,0.383021831512451,0.384883880615234,1912.76022291183,"0",2,1,5
14,20,1,0.57019305229187,1.99967193603516,1918.7919421196,"0",0,3,5
14,20,1,0.496363878250122,3.99967002868652,1920.79193997383,"0",0,4,5
14,20,1,0.680220127105713,6.01626992225647,1922.80853891373,"0",2,3,5
14,20,1,0.592904090881348,7.9996600151062,1924.79192996025,"0",0,3,5
14,20,1,0.882396936416626,9.9993908405304,1926.79166007042,"0",1,0,5
14,20,1,0.731539964675903,12.0161149501801,1928.80838394165,"0",2,2,5
14,20,1,0.558611869812012,13.9994239807129,1930.79169297218,"0",0,7,5
14,20,1,0.613936185836792,2.01585507392883,1938.85846590996,"0",2,0,5
14,20,1,0.659212112426758,3.99910712242126,1940.84171795845,"0",0,5,5
14,20,1,0.640006065368652,5.99907207489014,1942.84168291092,"0",1,0,5
14,20,1,0.565255880355835,8.01538801193237,1944.85799908638,"0",2,5,5
14,20,1,0.477595090866089,9.99910402297974,1946.84171509743,"0",1,3,5
14,20,1,0.621206998825073,11.999162197113,1948.84177303314,"0",0,5,5
14,20,1,0.474877119064331,13.9986870288849,1950.84129810333,"0",0,5,5
14,20,1,0.653457880020142,1.99888205528259,1958.89169096947,"0",0,1,5
14,20,1,0.5312180519104,3.99911999702454,1960.89192891121,"0",1,7,5
14,20,1,0.446243047714233,5.99891209602356,1962.89172101021,"0",1,4,5
14,20,1,0.582334995269775,7.99917912483215,1964.89198708534,"0",0,3,5
14,20,1,0.531196117401123,9.99884605407715,1966.89165496826,"0",1,4,5
14,20,1,0.664505004882812,12.015734910965,1968.90854501724,"0",2,4,5
14,20,1,0.5711829662323,13.9988760948181,1970.891685009,"0",1,6,5
14,8,1,0.579440832138062,1.99942493438721,1978.94190502167,"0",0,0,5
14,8,1,0.722200870513916,3.99938797950745,1980.94186711311,"0",0,2,5
14,8,1,0.450565099716187,5.99924302101135,1982.94172096252,"0",1,3,5
14,8,1,0.465024948120117,8.01607203483582,1984.95855093002,"0",2,6,5
14,8,1,0.414681911468506,10.0160810947418,1986.95855903625,"0",2,4,5
14,8,1,0.766762971878052,11.9994509220123,1988.94192910194,"0",0,5,5
14,8,1,0.549882173538208,13.9992110729218,1990.94168901443,"0",1,2,5
14,4,0,0.282824039459229,0.284576177597046,1997.27716207504,"0",2,0,5
14,8,1,0.602415800094604,1.99963998794556,2003.3086540699,"0",0,3,5
14,8,1,0.424455881118774,3.99955606460571,2005.30857110023,"0",0,3,5
14,8,1,0.469460010528564,5.99893808364868,2007.30795192719,"0",0,5,5
14,8,1,0.514427900314331,7.99951720237732,2009.30853199959,"0",1,1,5
14,8,1,0.683773040771484,9.99930310249329,2011.30831599236,"0",0,4,5
14,8,1,0.607973098754883,11.9995701313019,2013.30858492851,"0",1,1,5
14,8,1,0.764960050582886,13.9995620250702,2015.3085770607,"0",0,6,5
14,20,1,0.565490007400513,2.0155918598175,2023.37503910065,"0",2,1,5
14,20,1,0.541181087493896,3.99913001060486,2025.35857796669,"0",0,3,5
14,20,1,0.597923994064331,6.01557803153992,2027.37502503395,"0",2,3,5
14,20,1,0.749315977096558,7.99906897544861,2029.35851693153,"0",1,5,5
14,20,1,0.535615921020508,9.99908494949341,2031.3585319519,"0",1,7,5
14,20,1,0.688580989837646,11.9988739490509,2033.35832095146,"0",1,6,5
14,20,1,0.648669004440308,14.0155298709869,2035.37497806549,"0",2,4,5
14,4,0,0.272281885147095,0.291996002197266,2041.71797394753,"0",0,5,5
14,20,1,0.55968189239502,1.99940299987793,2047.7583129406,"0",1,3,5
14,20,1,0.567770957946777,3.99960684776306,2049.75851607323,"0",0,0,5
14,20,2,0.365976810455322,5.99960994720459,2051.75852012634,"0",1,2,5
14,20,1,0.934361934661865,7.99937891960144,2053.75828909874,"0",0,1,5
14,20,1,0.515820026397705,9.99959492683411,2055.75850391388,"0",0,1,5
14,20,1,0.614552974700928,12.0162768363953,2057.77518606186,"0",2,0,5
14,20,1,0.488681077957153,13.9995579719543,2059.75846791267,"0",0,6,5
14,8,1,0.798854112625122,2.01601791381836,2067.82498192787,"0",2,2,5
14,8,1,0.563091993331909,4.0162570476532,2069.82522201538,"0",2,4,5
14,8,1,0.530200958251953,6.01623606681824,2071.82520103455,"0",2,7,5
14,8,1,0.39825701713562,8.01629400253296,2073.82525897026,"0",2,7,5
14,8,1,0.447648048400879,10.0159990787506,2075.82496404648,"0",2,6,5
14,8,1,0.709633827209473,11.9996070861816,2077.80857205391,"0",1,0,5
14,8,1,0.53059196472168,14.0161669254303,2079.82513308525,"0",2,1,5
14,4,0,0.264700174331665,0.284647941589355,2086.15992593765,"0",0,4,5
14,20,1,0.73623514175415,1.9988169670105,2092.19156098366,"0",1,5,5
14,20,1,0.598149061203003,4.01552391052246,2094.20826792717,"0",2,7,5
14,20,1,0.563054084777832,5.9991888999939,2096.19193410873,"0",1,5,5
14,20,1,0.731043815612793,8.0158748626709,2098.20862007141,"0",2,3,5
14,20,1,0.714525938034058,10.0155410766602,2100.20828604698,"0",2,3,5
14,20,1,0.754400968551636,11.9991018772125,2102.19184803963,"0",0,5,5
14,20,1,0.801353931427002,13.9990880489349,2104.19183397293,"0",0,3,5
14,8,1,0.544174909591675,1.9993040561676,2112.24186611176,"0",1,5,5
14,8,1,0.512877941131592,3.9993622303009,2114.2419230938,"0",0,5,5
14,8,1,0.486182928085327,5.99911618232727,2116.2416779995,"0",0,4,5
14,8,1,0.475090026855469,7.99936008453369,2118.24192214012,"0",1,6,5
14,8,1,0.580142021179199,10.0159101486206,2120.25847196579,"0",2,1,5
14,8,1,0.863063097000122,12.0160181522369,2122.25857996941,"0",2,6,5
14,8,1,0.540827989578247,13.9993720054626,2124.24193406105,"0",0,7,5
14,4,0,0.316100120544434,0.317953109741211,2130.60974502563,"0",2,3,5
14,4,0,0.247205018997192,0.269668817520142,2134.91250991821,"0",0,4,5
14,20,1,0.535449028015137,1.9989287853241,2140.94158601761,"0",0,6,5
14,20,1,0.547644138336182,3.99920582771301,2142.94186210632,"0",1,7,5
14,20,1,0.456611156463623,5.99890995025635,2144.94156599045,"0",1,6,5
14,20,1,0.509006977081299,7.99909996986389,2146.94175601006,"0",1,6,5
14,20,1,0.580915927886963,10.0158219337463,2148.95847892761,"0",2,1,5
14,20,1,0.547530889511108,12.0158729553223,2150.95852899551,"0",2,6,5
14,20,1,0.545902013778687,13.9991059303284,2152.94176292419,"0",0,0,5
14,20,1,0.54970383644104,1.99891090393066,2160.99153709412,"0",0,4,5
14,20,1,0.388034820556641,3.9991888999939,2162.99181509018,"0",0,6,5
14,20,1,0.680230855941772,6.01577186584473,2165.00839805603,"0",2,7,5
14,20,1,0.554218053817749,7.99927186965942,2166.99189805984,"0",1,4,5
14,20,1,0.634315013885498,9.99924302101135,2168.99186897278,"0",0,3,5
14,20,1,0.422830104827881,11.9991579055786,2170.99178504944,"0",0,7,5
14,20,1,0.614335060119629,14.0155658721924,2173.00819206238,"0",2,6,5
2,4,1,0.579774856567383,1.99904704093933,2187.34172606468,"0",1,1,6
2,4,2,0.447237014770508,2.01671195030212,2207.40853595734,"0",2,2,6
2,8,1,0.581187963485718,1.99942708015442,2225.44178700447,"0",0,7,6
2,20,1,0.472210884094238,1.99863290786743,2245.49110913277,"0",0,3,6
2,20,1,0.598520040512085,2.01524305343628,2265.55779790878,"0",2,6,6
2,8,1,0.53079891204834,1.99902987480164,2285.60818195343,"0",0,7,6
2,20,1,0.585659980773926,1.99869418144226,2305.65775704384,"0",0,2,6
2,8,1,0.91952919960022,1.99903297424316,2325.70832896233,"0",1,3,6
2,8,1,0.437175035476685,1.99858784675598,2345.75775313377,"0",0,7,6
2,4,1,0.599052906036377,2.01571798324585,2365.82453298569,"0",2,4,6
2,20,1,0.576916933059692,1.99865293502808,2385.87440109253,"0",1,7,6
2,4,1,0.598575830459595,2.01582098007202,2405.94168496132,"0",2,3,6
2,20,1,0.496598958969116,1.99932503700256,2425.99165391922,"0",1,5,6
2,4,1,0.56899094581604,1.99919390678406,2446.04145812988,"0",0,0,6
2,20,1,0.748309135437012,2.01572299003601,2466.10819005966,"0",2,0,6
2,4,1,0.563976049423218,1.99887919425964,2486.15807104111,"0",1,5,6
2,8,2,0.715242147445679,2.01570200920105,2506.22475504875,"0",2,7,6
2,8,2,0.915223836898804,2.01554107666016,2524.27485394478,"0",2,2,6
2,20,1,0.660775899887085,1.99939513206482,2542.30826997757,"0",1,6,6
2,8,1,0.58115816116333,1.99911785125732,2562.35799407959,"0",1,5,6
2,4,2,0.698793888092041,2.01580810546875,2582.42471599579,"0",2,7,6
