"Handling","Reward","Choice","Task.RT","Choice.RT","Experiment.Time","Trial.Outcome","Task.Type","Task.Setup","Block"
14,8,1,0.647319078445435,2.01641798019409,9.0713369846344,"0",2,3,1
14,8,1,0.394958972930908,3.9995129108429,11.0544319152832,"0",1,7,1
14,8,1,0.626753091812134,5.9995698928833,13.0544888973236,"0",0,6,1
14,8,1,0.513797044754028,8.01628184318542,15.0712010860443,"0",2,0,1
14,8,1,0.813395977020264,9.99919581413269,17.0541150569916,"0",0,5,1
14,8,1,0.431654930114746,12.0163838863373,19.0713028907776,"0",2,6,1
14,8,1,0.547851085662842,14.0164568424225,21.0713760852814,"0",2,1,1
14,20,1,0.651988983154297,1.99907612800598,29.121572971344,"0",0,6,1
14,20,1,0.462749004364014,3.99905705451965,31.1215538978577,"0",1,4,1
14,20,1,0.428521156311035,5.99917101860046,33.1216681003571,"0",0,3,1
14,20,1,0.381155967712402,8.01581001281738,35.138307094574,"0",2,5,1
14,20,2,0.398445129394531,10.015881061554,37.1383769512177,"0",2,6,1
14,20,1,0.443521022796631,11.999274969101,39.1217720508575,"0",0,4,1
14,20,1,0.597497940063477,14.0160069465637,41.138503074646,"0",2,3,1
14,4,0,0.138875007629395,0.160173892974854,47.3498458862305,"0",0,0,1
14,8,1,0.514584064483643,2.01594591140747,53.405816078186,"0",2,1,1
14,8,1,0.447984933853149,4.01553201675415,55.4054019451141,"0",2,5,1
14,8,1,0.43175196647644,6.01572108268738,57.405590057373,"0",2,2,1
14,8,1,0.617714881896973,7.99909806251526,59.3889679908752,"0",1,6,1
14,8,1,0.55652904510498,9.99914908409119,61.3890190124512,"0",0,5,1
14,8,1,0.709842920303345,11.9991669654846,63.3890368938446,"0",1,2,1
14,8,1,0.490729093551636,13.9992179870605,65.3890879154205,"0",1,2,1
14,20,1,0.523290157318115,1.99902415275574,73.4394199848175,"0",1,5,1
14,20,1,0.60400915145874,3.998939037323,75.4393351078033,"0",0,4,1
14,20,1,0.828472852706909,5.99902606010437,77.4394218921661,"0",0,1,1
14,20,1,0.616657972335815,7.99902415275574,79.4394199848175,"0",1,4,1
14,20,1,0.527673006057739,9.99906396865845,81.4394590854645,"0",0,6,1
14,20,1,0.503958940505981,11.9991490840912,83.4395439624786,"0",0,6,1
14,20,1,0.449243068695068,13.9991669654846,85.4395620822906,"0",1,0,1
14,4,1,0.605144023895264,1.9990291595459,93.4897739887238,"0",0,5,1
14,4,1,0.428699970245361,3.99906206130981,95.4898068904877,"0",1,6,1
14,4,1,0.751376867294312,5.99917602539062,97.4899210929871,"0",0,7,1
14,4,1,0.36030912399292,7.99920201301575,99.4899458885193,"0",1,3,1
14,4,1,0.459213972091675,9.99924111366272,101.489985942841,"0",0,1,1
14,4,1,0.415614128112793,11.9992771148682,103.490021944046,"0",1,3,1
14,4,1,0.386447191238403,13.9993450641632,105.490089893341,"0",1,4,1
14,8,2,0.997029066085815,2.01559400558472,113.556952953339,"0",2,3,1
14,8,1,0.481483936309814,3.99897193908691,115.540330886841,"0",1,1,1
14,8,1,0.747936010360718,6.01569390296936,117.557053089142,"0",2,4,1
14,8,1,0.371179103851318,7.99910998344421,119.540468931198,"0",1,3,1
14,8,1,0.554966926574707,9.99911999702454,121.540478944778,"0",0,7,1
14,8,1,0.457031965255737,11.9991419315338,123.540499925613,"0",1,2,1
14,8,1,0.585213899612427,13.9991760253906,125.54053401947,"0",0,0,1
14,20,1,0.483964920043945,1.99892807006836,133.590735912323,"0",1,4,1
14,20,1,0.42966103553772,3.9990119934082,135.590820074081,"0",1,7,1
14,20,2,0.463673114776611,6.01569104194641,137.607497930527,"0",2,5,1
14,20,1,0.413846969604492,7.99876594543457,139.590574026108,"0",1,2,1
14,20,1,0.435983180999756,9.99917197227478,141.590980052948,"0",0,6,1
14,20,1,0.714506864547729,12.0158591270447,143.607666969299,"0",2,7,1
14,20,1,0.459825992584229,13.9992520809174,145.591059923172,"0",1,3,1
14,8,1,0.480845928192139,1.99917197227478,153.641237974167,"0",1,3,1
14,8,1,0.865166902542114,4.01596879959106,155.658035039902,"0",2,7,1
14,8,1,0.412402868270874,5.99926495552063,157.641330003738,"0",0,7,1
14,8,1,0.488143920898438,7.99933695793152,159.641402959824,"0",0,7,1
14,8,1,0.6336989402771,9.99943685531616,161.641501903534,"0",0,6,1
14,8,1,0.531675815582275,12.0160918235779,163.658158063889,"0",2,1,1
14,8,1,0.477678060531616,13.9994859695435,165.641551017761,"0",0,0,1
14,4,0,0.247872829437256,0.249756813049316,171.942566871643,"0",2,7,1
14,20,1,0.637209177017212,2.00000596046448,177.9751329422,"0",1,0,1
14,20,1,0.480731964111328,4.00009894371033,179.975225925446,"0",2,7,1
14,20,1,0.417968034744263,6.0001528263092,181.975280046463,"0",1,1,1
14,20,2,0.515039920806885,8.0001859664917,183.975312948227,"0",2,3,1
14,20,1,0.372910022735596,10.0002458095551,185.975373029709,"0",1,1,1
14,20,2,0.564059972763062,12.0002839565277,187.975410938263,"0",2,2,1
14,4,0,0.252394199371338,0.272813081741333,192.282829046249,"0",0,0,1
14,4,0,0.345845937728882,0.351230144500732,196.661379098892,"0",1,6,1
14,20,1,0.624510049819946,1.99892592430115,202.692419052124,"0",1,6,1
14,20,1,0.441359996795654,3.99901700019836,204.692509889603,"0",1,2,1
14,20,2,0.447634935379028,6.01574611663818,206.709238052368,"0",2,0,1
14,20,1,0.468955993652344,7.99909806251526,208.69259095192,"0",0,6,1
14,20,1,0.630306959152222,10.015881061554,210.709372997284,"0",2,2,1
14,20,1,0.597531080245972,12.0158998966217,212.709393024445,"0",2,6,1
14,20,1,0.456073999404907,13.9992270469666,214.692718982697,"0",0,1,1
14,4,0,0.247709035873413,0.268776178359985,221.012824058533,"0",0,6,1
14,20,1,0.520847082138062,1.99860215187073,227.042742967606,"0",0,7,1
14,20,1,0.434106111526489,3.9989640712738,229.043103933334,"0",1,6,1
14,20,1,0.482985973358154,5.99901509284973,231.043155908585,"0",1,6,1
14,20,2,0.447743892669678,8.01576113700867,233.059901952744,"0",2,1,1
14,20,1,0.406599044799805,9.99909400939941,235.04323387146,"0",0,4,1
14,20,1,0.49578595161438,11.9991590976715,237.043299913406,"0",1,2,1
14,20,1,0.4704430103302,13.9992451667786,239.043385982513,"0",0,6,1
14,8,1,0.831968069076538,2.0159740447998,247.110647916794,"0",2,2,1
14,8,1,0.400860071182251,3.99894213676453,249.093616008759,"0",1,0,1
14,8,1,0.414963006973267,6.01564598083496,251.110320091248,"0",2,7,1
14,8,1,0.488311052322388,7.99904704093933,253.093720912933,"0",0,7,1
14,8,1,0.373511075973511,9.99905705451965,255.093730926514,"0",1,2,1
14,8,1,0.350542783737183,11.9991269111633,257.093801021576,"0",1,5,1
14,8,1,0.541578054428101,13.9991869926453,259.093859910965,"0",0,2,1
14,8,1,0.493489027023315,1.99924993515015,267.14402794838,"0",0,6,1
14,8,1,0.480695009231567,4.01594591140747,269.160723924637,"0",2,0,1
14,8,1,0.547599077224731,6.01604986190796,271.160827875137,"0",2,6,1
14,8,1,0.365052938461304,8.01603078842163,273.16080904007,"0",2,0,1
14,8,1,0.464388132095337,9.99943685531616,275.144215106964,"0",0,7,1
14,8,1,0.420845985412598,11.9994969367981,277.144273996353,"0",1,6,1
14,8,1,0.396529912948608,13.9995138645172,279.144291877747,"0",1,3,1
14,8,1,0.522418975830078,1.9989321231842,287.194561958313,"0",1,1,1
14,8,1,0.369127988815308,3.99893116950989,289.194560050964,"0",1,0,1
14,8,1,0.363847970962524,5.99899816513062,291.194628000259,"0",1,0,1
14,8,1,0.459149837493896,7.99906897544861,293.194699048996,"0",0,4,1
14,8,1,0.730890989303589,10.0156769752502,295.211306095123,"0",2,0,1
14,8,1,0.697053909301758,12.0158369541168,297.211467027664,"0",2,7,1
14,8,1,0.412441968917847,13.9991590976715,299.1947889328,"0",0,1,1
14,20,1,0.464616060256958,2.01566290855408,307.261725902557,"0",2,1,1
14,20,1,0.440330982208252,3.999018907547,309.245080947876,"0",0,1,1
14,20,1,0.510416984558105,5.99904298782349,311.245105981827,"0",0,2,1
14,20,1,0.431587934494019,8.01576399803162,313.261826992035,"0",2,4,1
14,20,1,0.49806809425354,10.0158159732819,315.261878967285,"0",2,0,1
14,20,1,0.398036956787109,12.0158598423004,317.261923074722,"0",2,6,1
14,20,1,0.434338092803955,13.9992339611053,319.245296001434,"0",0,1,1
14,20,1,0.467826128005981,1.99937415122986,327.295516014099,"0",1,7,1
14,20,1,0.461193084716797,3.99943709373474,329.29557800293,"0",0,0,1
14,20,1,0.365833044052124,5.99946713447571,331.295608997345,"0",1,4,1
14,20,1,0.458899021148682,7.99950695037842,333.295648097992,"0",1,2,1
14,20,1,0.530930995941162,10.0161800384521,335.312321901321,"0",2,2,1
14,20,2,0.565078020095825,12.0163040161133,337.312445878983,"0",2,2,1
14,20,1,0.518413066864014,14.0000860691071,339.296227931976,"0",0,4,1
14,8,0,0.615394115447998,0.617182016372681,345.964174032211,"0",2,4,1
14,4,0,0.62443995475769,0.627717971801758,350.624842882156,"0",1,5,1
14,4,0,0.677561044692993,0.697915077209473,355.361448049545,"0",0,3,1
14,20,1,0.539323091506958,1.99925184249878,361.396341085434,"0",0,4,1
14,20,1,0.455155849456787,3.99928689002991,363.396375894547,"0",0,4,1
14,20,1,0.405342817306519,5.99905180931091,365.396141052246,"0",1,7,1
14,20,1,0.425668954849243,7.99938893318176,367.396477937698,"0",1,2,1
14,20,1,0.345197916030884,9.99944186210632,369.396531105042,"0",1,5,1
14,20,1,0.40378999710083,11.9994909763336,371.39657998085,"0",1,0,1
14,20,1,0.437469005584717,13.9996218681335,373.39671087265,"0",0,6,1
14,20,1,0.648743152618408,2.01617193222046,381.463970899582,"0",2,1,1
14,20,2,0.331847190856934,4.01580286026001,383.463603019714,"0",2,1,1
14,20,1,0.478384971618652,5.99914693832397,385.446947097778,"0",0,1,1
14,20,1,0.831423044204712,8.01583790779114,387.463638067245,"0",2,7,1
14,20,1,0.562932014465332,10.0159258842468,389.463726043701,"0",2,3,1
14,20,1,0.437936067581177,11.9993269443512,391.447127103806,"0",1,3,1
14,20,1,0.931743860244751,14.0159840583801,393.463783979416,"0",2,3,1
14,4,0,0.387315988540649,0.390225172042847,399.905210018158,"0",1,3,1
14,8,1,0.520699024200439,1.99896192550659,405.930779933929,"0",1,1,1
14,8,2,0.648372888565063,4.015704870224,407.947522878647,"0",2,2,1
14,8,1,0.420432090759277,5.99906277656555,409.930881023407,"0",1,2,1
14,8,1,0.394802093505859,7.99935483932495,411.931174039841,"0",1,7,1
14,8,1,0.404304981231689,9.99931287765503,413.931130886078,"0",1,7,1
14,8,1,0.528164148330688,11.9991948604584,415.9310131073,"0",0,2,1
14,8,1,0.515166997909546,14.015918970108,417.947736978531,"0",2,2,1
2,4,1,0.658347129821777,1.99942588806152,431.964761018753,"0",1,2,2
2,8,1,0.599692106246948,1.99927306175232,452.015215873718,"0",0,0,2
2,20,1,0.72330904006958,1.99889492988586,472.065439939499,"0",0,2,2
2,8,1,0.542709827423096,1.9988899230957,492.116183042526,"0",0,1,2
2,20,1,0.815310001373291,2.01570606231689,512.183369874954,"0",2,1,2
2,4,1,0.535890817642212,1.99966216087341,532.233814001083,"0",1,6,2
2,8,1,0.514940023422241,2.01558399200439,552.300977945328,"0",2,4,2
2,4,1,0.457443952560425,1.99873995780945,572.351412057877,"0",1,4,2
2,20,1,0.598036050796509,1.9992470741272,592.401895999908,"0",1,1,2
2,8,1,0.514989137649536,2.01596093177795,612.469065904617,"0",2,5,2
2,4,1,0.579519033432007,1.99931907653809,632.519814968109,"0",0,6,2
2,20,1,0.765555858612061,2.01590991020203,652.586729049683,"0",2,3,2
2,4,1,0.594017028808594,1.99904704093933,672.637161970139,"0",0,1,2
2,8,1,0.531276941299438,2.01561498641968,692.704369068146,"0",2,2,2
2,20,1,0.839817047119141,1.99887299537659,712.754777908325,"0",1,2,2
2,4,1,0.455398082733154,1.99891018867493,732.80527806282,"0",0,6,2
2,8,1,0.59950590133667,2.01636004447937,752.872278928757,"0",2,2,2
2,20,1,0.537697076797485,1.9989800453186,772.922935962677,"0",0,0,2
2,8,1,0.631071090698242,1.99901795387268,792.973330020905,"0",1,2,2
2,20,1,0.520267963409424,1.99904298782349,813.023850917816,"0",1,0,2
2,8,1,0.684939861297607,2.00017189979553,833.074282884598,"0",1,4,2
10,20,1,0.504925966262817,1.99898600578308,859.15829706192,"0",0,3,3
10,20,1,0.548386812210083,4.01566505432129,861.174974918365,"0",2,3,3
10,20,1,0.451187133789062,5.99904918670654,863.158359050751,"0",0,0,3
10,20,1,0.530864000320435,8.01580214500427,865.175112962723,"0",2,1,3
10,20,2,0.681656122207642,10.0158741474152,867.175184965134,"0",2,3,3
10,8,1,0.560462951660156,1.99889993667603,879.225419044495,"0",0,1,3
10,8,1,0.447082996368408,3.99892497062683,881.225444078445,"0",1,7,3
10,8,1,0.514750003814697,5.99900698661804,883.225526094437,"0",1,1,3
10,8,1,0.364301919937134,7.99908304214478,885.225601911545,"0",1,5,3
10,8,1,0.430179834365845,9.99908995628357,887.225609064102,"0",0,1,3
10,20,2,0.865616083145142,2.01594614982605,899.292603969574,"0",2,2,3
10,20,1,0.443131923675537,3.99929308891296,901.275950908661,"0",0,2,3
10,20,1,0.385175943374634,5.99934196472168,903.276000976562,"0",1,4,3
10,20,1,0.460808992385864,7.99938797950745,905.276046037674,"0",0,1,3
10,20,1,0.402758121490479,9.99944400787354,907.27610206604,"0",1,7,3
10,4,0,0.282471895217896,0.284379005432129,917.611561059952,"0",2,6,3
10,4,1,0.532207012176514,2.015949010849,927.659926891327,"0",2,0,3
10,4,1,0.464254856109619,4.01601886749268,929.659996032715,"0",2,6,3
10,4,1,0.433173894882202,5.99935603141785,931.643332004547,"0",0,0,3
10,4,1,0.4844970703125,7.99945187568665,933.643428087234,"0",0,3,3
10,4,1,0.355193138122559,9.99949097633362,935.643467903137,"0",1,4,3
10,8,1,0.562939882278442,2.01553297042847,947.710385084152,"0",2,2,3
10,8,1,0.466248035430908,4.01560616493225,949.710458993912,"0",2,0,3
10,8,1,0.535239934921265,5.99896907806396,951.693821907043,"0",1,1,3
10,8,1,0.413422107696533,8.01572418212891,953.710577011108,"0",2,4,3
10,8,1,0.475607872009277,9.9990611076355,955.693913936615,"0",0,6,3
10,8,1,0.564432859420776,2.01556396484375,967.760916948318,"0",2,3,3
10,8,1,0.537755012512207,3.99893689155579,969.744289875031,"0",0,0,3
10,8,1,0.447102069854736,5.9989869594574,971.744339942932,"0",1,4,3
10,8,2,0.731326103210449,8.01570701599121,973.761059045792,"0",2,7,3
10,8,1,0.480978012084961,10.0157659053802,975.761118888855,"0",2,5,3
10,4,0,0.454025030136108,0.457491874694824,986.269864082336,"0",1,2,3
10,20,1,0.528589963912964,1.99898886680603,996.294934034348,"0",0,3,3
10,20,1,0.515054941177368,4.01570200920105,998.311646938324,"0",2,0,3
10,20,1,0.361185073852539,5.99905586242676,1000.29500102997,"0",1,4,3
10,20,1,0.431982040405273,7.9991250038147,1002.29506993294,"0",1,0,3
10,20,1,0.338587999343872,9.9991729259491,1004.29511809349,"0",1,5,3
10,4,0,0.382805109024048,0.38457202911377,1014.73095989227,"0",2,6,3
10,8,2,0.805850982666016,1.99899291992188,1024.76229906082,"0",0,7,3
10,8,1,0.664405822753906,4.01565909385681,1026.77896404266,"0",2,7,3
10,8,1,0.416012048721313,5.99912309646606,1028.76242899895,"0",1,7,3
10,8,1,0.470215082168579,7.99915790557861,1030.7624630928,"0",0,3,3
10,8,1,0.494713068008423,9.99915099143982,1032.76245689392,"0",0,4,3
10,20,1,0.489989042282104,1.99894285202026,1044.81271910667,"0",1,4,3
10,20,1,0.616180896759033,3.99905490875244,1046.81283092499,"0",0,4,3
10,20,1,0.46875,5.99912285804749,1048.81289887428,"0",0,5,3
10,20,1,0.830106973648071,8.01576495170593,1050.82954096794,"0",2,2,3
10,20,1,0.511531829833984,9.99919295310974,1052.81296896935,"0",1,1,3
10,8,1,0.463561058044434,1.9989550113678,1064.86324691772,"0",1,3,3
10,8,1,0.681494951248169,4.01570606231689,1066.87999892235,"0",2,0,3
10,8,1,0.515403985977173,5.99906611442566,1068.86335897446,"0",1,1,3
10,8,1,0.447974920272827,7.99906492233276,1070.86335802078,"0",1,6,3
10,8,1,0.340108156204224,9.99915194511414,1072.86344504356,"0",1,4,3
10,20,1,0.631858110427856,2.01555800437927,1084.93047094345,"0",2,0,3
10,20,1,0.651639938354492,3.9988329410553,1086.91374492645,"0",0,2,3
10,20,1,0.54146409034729,5.99889588356018,1088.91380810738,"0",1,1,3
10,20,1,0.38131308555603,7.99895596504211,1090.91386795044,"0",1,4,3
10,20,1,0.688196897506714,9.99875783920288,1092.91367006302,"0",0,7,3
10,4,0,0.362016916275024,0.366902112960815,1103.33170604706,"0",1,4,3
10,20,1,0.663830995559692,2.01510310173035,1113.38080596924,"0",2,4,3
10,20,1,0.464667081832886,4.01531410217285,1115.38101696968,"0",2,3,3
10,20,1,0.502898931503296,5.9985339641571,1117.36423707008,"0",0,1,3
10,20,1,0.371610164642334,7.99883008003235,1119.36453294754,"0",1,5,3
10,20,1,0.364174842834473,10.0151200294495,1121.38082408905,"0",2,2,3
10,4,0,0.282270908355713,0.284162044525146,1131.71654605865,"0",2,0,3
10,8,1,0.47794508934021,2.00053095817566,1141.74852490425,"0",1,4,3
10,8,1,0.356896162033081,4.00048804283142,1143.74848294258,"0",1,5,3
10,8,1,0.479674100875854,6.00031709671021,1145.74831199646,"0",0,0,3
10,8,1,0.439790964126587,7.99981498718262,1147.74780893326,"0",1,6,3
10,8,1,0.399025917053223,10.0004758834839,1149.74847102165,"0",2,5,3
10,8,1,0.513738870620728,2.0163209438324,1161.81618404388,"0",2,3,3
10,8,1,0.411051988601685,3.99844098091125,1163.79830408096,"0",0,3,3
10,8,1,0.366556882858276,5.99891209602356,1165.79877400398,"0",0,3,3
10,8,1,0.358644008636475,7.99944114685059,1167.79930305481,"0",1,4,3
10,8,1,0.605885982513428,9.99860405921936,1169.79846596718,"0",0,7,3
10,8,1,0.560363054275513,1.99954915046692,1181.8499789238,"0",1,0,3
10,8,1,0.546725988388062,4.01570701599121,1183.86613607407,"0",2,5,3
10,8,1,0.631249904632568,6.01579713821411,1185.86622595787,"0",0,2,3
10,8,1,0.415070056915283,8.01584506034851,1187.86627388,"0",2,5,3
10,8,1,0.382296085357666,9.99920415878296,1189.84963297844,"0",0,3,3
10,20,1,0.572958946228027,1.99870300292969,1201.89957690239,"0",0,5,3
10,20,2,0.596518039703369,4.01572299003601,1203.91659808159,"0",2,1,3
10,20,1,0.462829828262329,5.99915409088135,1205.90002894402,"0",1,0,3
10,20,1,0.541563987731934,7.99916100502014,1207.90003609657,"0",0,7,3
10,20,1,0.433470010757446,9.99923801422119,1209.90011310577,"0",1,3,3
10,4,0,0.282798051834106,0.30314302444458,1220.25458288193,"0",0,2,3
10,4,0,0.524168968200684,0.544619083404541,1228.82955598831,"0",0,4,3
10,20,1,0.414803028106689,1.99896311759949,1238.86744499207,"0",1,5,3
10,20,1,0.517452001571655,3.99907803535461,1240.86756110191,"0",0,7,3
10,20,1,0.431670188903809,6.01576399803162,1242.88424706459,"0",2,5,3
10,20,1,0.374568939208984,7.99914002418518,1244.86762309074,"0",1,4,3
10,20,1,0.378795146942139,9.99904298782349,1246.86752605438,"0",1,5,3
10,8,1,0.664999008178711,2.01561808586121,1258.93462991714,"0",2,4,3
10,8,1,0.789838790893555,3.99900507926941,1260.91801691055,"0",0,5,3
10,8,1,0.619297027587891,5.99904203414917,1262.91805291176,"0",0,3,3
10,8,1,0.857754945755005,7.9991340637207,1264.918145895,"0",0,2,3
10,8,1,0.49183988571167,9.99918103218079,1266.91819310188,"0",0,2,3
14,4,0,0.415628910064697,0.417395830154419,1294.5205540657,"0",2,7,4
14,4,0,0.301881790161133,0.322278022766113,1298.87561392784,"0",0,7,4
14,20,1,0.530651092529297,2.01567506790161,1304.91906094551,"0",2,6,4
14,20,1,0.541910886764526,3.99907493591309,1306.90246105194,"0",0,4,4
14,20,1,0.399663925170898,5.99914193153381,1308.90252804756,"0",1,3,4
14,20,1,0.443301916122437,7.99921202659607,1310.90259695053,"0",0,0,4
14,20,1,0.378435134887695,9.99928092956543,1312.90266609192,"0",0,3,4
14,20,1,0.37831711769104,11.9992799758911,1314.90266609192,"0",1,4,4
14,20,1,0.431164026260376,14.0159900188446,1316.91937589645,"0",2,4,4
14,20,2,0.581869125366211,2.01570916175842,1324.98622894287,"0",2,5,4
14,20,2,0.461642026901245,3.99913215637207,1326.96965193748,"0",1,7,4
14,8,1,0.686479091644287,1.99893021583557,1333.00312399864,"0",0,7,4
14,8,1,0.457392930984497,3.99893617630005,1335.00312900543,"0",1,6,4
14,8,1,0.664637088775635,6.01568412780762,1337.01987791061,"0",2,1,4
14,8,1,0.547974824905396,8.01575708389282,1339.01995110512,"0",2,4,4
14,8,1,0.708000898361206,9.9991180896759,1341.00331187248,"0",1,5,4
14,8,1,0.524433135986328,11.9991550445557,1343.00334906578,"0",0,7,4
14,8,1,0.595851182937622,13.9992370605469,1345.00342988968,"0",0,2,4
14,8,1,0.567007064819336,1.99915289878845,1353.05362010002,"0",0,4,4
14,8,2,0.66382884979248,4.01578903198242,1355.0702559948,"0",2,5,4
14,8,1,0.509159088134766,5.99922394752502,1357.05369091034,"0",0,3,4
14,8,1,0.492923021316528,7.99930095672607,1359.05376791954,"0",0,6,4
14,8,1,0.515726089477539,9.99936699867249,1361.05383396149,"0",0,6,4
14,8,1,0.518572092056274,11.9993979930878,1363.0538649559,"0",0,5,4
14,8,1,0.418710947036743,13.9994020462036,1365.05386900902,"0",1,4,4
14,4,0,0.350741147994995,0.353703022003174,1371.45867395401,"0",1,3,4
14,20,1,0.681863069534302,2.01569199562073,1377.50426387787,"0",2,6,4
14,20,1,0.478523969650269,3.99900102615356,1379.4875729084,"0",0,4,4
14,20,1,0.439217090606689,5.99858498573303,1381.4871571064,"0",0,2,4
14,20,1,0.398364067077637,8.01576805114746,1383.5043399334,"0",2,5,4
14,20,1,0.480333089828491,10.015841960907,1385.50441408157,"0",2,0,4
14,20,1,0.407807111740112,11.9992480278015,1387.48781991005,"0",1,4,4
14,20,1,0.614248037338257,14.0158829689026,1389.50445508957,"0",2,1,4
14,8,0,0.42145299911499,0.441925048828125,1395.99759888649,"0",0,5,4
14,20,1,0.540119171142578,1.99916100502014,1402.02146887779,"0",0,5,4
14,20,1,0.405762910842896,3.99918103218079,1404.02148890495,"0",1,3,4
14,20,1,0.464739084243774,6.01595711708069,1406.03826498985,"0",2,4,4
14,20,1,0.462578058242798,7.9993200302124,1408.02162694931,"0",1,6,4
14,20,1,0.447026014328003,10.0158979892731,1410.03820610046,"0",2,7,4
14,20,1,0.555738925933838,11.9993629455566,1412.02167010307,"0",0,6,4
14,20,1,0.682127952575684,13.9994189739227,1414.02172708511,"0",1,4,4
14,4,0,0.273344993591309,0.293646097183228,1420.36621809006,"0",0,6,4
14,8,0,0.523122072219849,0.528504133224487,1424.93501400948,"0",1,6,4
14,4,0,0.458087921142578,0.463790893554688,1429.43692088127,"0",1,6,4
14,4,0,0.447275876998901,0.467833042144775,1433.94110894203,"0",0,5,4
14,8,0,0.433071136474609,0.434854984283447,1438.40755987167,"0",2,2,4
14,8,1,0.642114162445068,1.99900317192078,1444.43912601471,"0",1,7,4
14,8,1,0.681670904159546,4.0159809589386,1446.45610499382,"0",2,5,4
14,8,1,0.629647970199585,6.0158109664917,1448.4559340477,"0",2,6,4
14,8,1,0.48800802230835,7.99917697906494,1450.4392991066,"0",1,3,4
14,8,1,0.481177091598511,9.99924612045288,1452.43936800957,"0",1,6,4
14,8,1,0.405606031417847,11.9992830753326,1454.43940591812,"0",1,3,4
14,8,1,0.352268934249878,13.9992940425873,1456.43941688538,"0",1,3,4
14,20,1,0.563221216201782,1.9993679523468,1464.48965096474,"0",1,2,4
14,20,1,0.564352989196777,4.01610279083252,1466.50638604164,"0",2,5,4
14,20,1,0.393380880355835,5.99946594238281,1468.48974895477,"0",1,4,4
14,20,1,0.847379922866821,8.01617693901062,1470.5064599514,"0",2,5,4
14,20,1,0.531359910964966,9.99956893920898,1472.4898519516,"0",0,5,4
14,20,1,0.425474882125854,11.9996449947357,1474.48992705345,"0",0,0,4
14,20,1,0.389153957366943,13.9996638298035,1476.48994588852,"0",1,3,4
14,20,1,0.463489055633545,1.99917006492615,1484.54015803337,"0",0,3,4
14,20,1,0.449483871459961,3.99905705451965,1486.54004597664,"0",0,5,4
14,20,1,0.491620063781738,5.99927306175232,1488.54026198387,"0",0,4,4
14,20,1,0.527117967605591,7.99929094314575,1490.54028010368,"0",0,1,4
14,20,1,0.464491128921509,10.0159649848938,1492.55695390701,"0",2,1,4
14,20,1,0.395678043365479,11.9994959831238,1494.54048490524,"0",0,7,4
14,20,1,0.530874013900757,13.999351978302,1496.54034090042,"0",1,5,4
14,8,1,0.581342935562134,2.01552200317383,1504.6072909832,"0",2,5,4
14,8,1,0.680154085159302,4.01566100120544,1506.60742998123,"0",2,0,4
14,8,1,0.586016893386841,5.99896383285522,1508.5907330513,"0",1,5,4
14,8,1,0.69762396812439,8.01568794250488,1510.60745692253,"0",2,2,4
14,8,1,0.494996070861816,9.99876093864441,1512.59052991867,"0",0,3,4
14,8,1,0.480950117111206,12.0157589912415,1514.60752797127,"0",2,1,4
14,8,1,0.521915912628174,13.9994008541107,1516.59117102623,"0",0,1,4
14,20,1,0.484156847000122,1.99902606010437,1524.64078903198,"0",0,0,4
14,20,1,0.498655080795288,4.0159170627594,1526.65768098831,"0",2,5,4
14,20,1,0.420852184295654,5.9994740486145,1528.64123797417,"0",0,1,4
14,20,1,0.44691801071167,8.01605701446533,1530.65782094002,"0",2,6,4
14,20,1,0.415050029754639,10.0162019729614,1532.65796589851,"0",2,3,4
14,20,1,0.507672071456909,11.9996860027313,1534.64144992828,"0",0,1,4
14,20,1,0.426414012908936,13.9997220039368,1536.64148592949,"0",0,6,4
14,8,0,0.26604700088501,0.268081903457642,1542.95999407768,"0",2,5,4
14,4,0,0.255053043365479,0.275906085968018,1547.26865196228,"0",0,0,4
14,4,0,0.400007009506226,0.404830932617188,1551.71396589279,"0",1,1,4
14,20,1,0.631294012069702,2.01513004302979,1557.79140591621,"0",2,7,4
14,20,1,0.510538816452026,3.99906706809998,1559.77534294128,"0",1,6,4
14,20,1,0.34582781791687,5.99924111366272,1561.77551698685,"0",1,3,4
14,20,1,0.401522159576416,7.99912095069885,1563.7753970623,"0",1,7,4
14,20,2,0.497574806213379,10.0156300067902,1565.7919049263,"0",2,4,4
14,20,1,0.508090972900391,11.9991900920868,1567.77546596527,"0",1,6,4
14,20,1,0.581840991973877,14.015958070755,1569.79223299026,"0",2,6,4
14,8,0,0.241657018661499,0.247232913970947,1576.09042596817,"0",1,7,4
14,8,0,0.298418998718262,0.300198078155518,1580.42718601227,"0",2,4,4
14,4,0,0.283046960830688,0.284872055053711,1584.74478197098,"0",2,0,4
14,20,1,0.526464939117432,1.99889993667603,1590.77606010437,"0",1,5,4
14,20,1,0.634775876998901,3.99895286560059,1592.77611207962,"0",1,5,4
14,20,1,0.578966856002808,5.99915385246277,1594.77631306648,"0",0,3,4
14,20,1,0.480243921279907,7.99911594390869,1596.77627587318,"0",1,5,4
14,20,1,0.496814966201782,10.0155189037323,1598.79267787933,"0",2,7,4
14,20,1,0.381717920303345,12.0158660411835,1600.79302501678,"0",2,5,4
14,20,1,0.63142991065979,14.0159368515015,1602.7930970192,"0",2,3,4
14,4,0,0.249537944793701,0.254180908203125,1609.09788393974,"0",1,1,4
14,20,2,0.737355947494507,1.99969100952148,1615.12680888176,"0",0,7,4
14,20,1,0.676277875900269,3.99963998794556,1617.1267580986,"0",0,5,4
14,20,1,0.598628997802734,5.99966192245483,1619.12678003311,"0",0,3,4
14,20,2,1.00010013580322,7.99972200393677,1621.12683987617,"0",0,4,4
14,20,1,0.565546989440918,2.01624417304993,1627.17700505257,"0",2,0,4
14,20,1,0.381842136383057,3.99962496757507,1629.16038703918,"0",1,7,4
14,20,1,0.714431047439575,6.01632809638977,1631.17709088326,"0",2,6,4
14,20,1,0.474416971206665,7.99977016448975,1633.16053199768,"0",0,4,4
14,20,1,0.642374992370605,9.9998631477356,1635.16062498093,"0",0,7,4
14,20,1,0.465540885925293,12.0000951290131,1637.1608569622,"0",1,5,4
14,20,1,0.516942977905273,13.9998271465302,1639.16058802605,"0",1,0,4
14,4,0,0.332840919494629,0.338249921798706,1645.55004191399,"0",1,6,4
14,8,1,0.451937913894653,1.99893498420715,1651.57760310173,"0",1,4,4
14,8,1,0.453300952911377,11.3563249111176,1660.93499302864,"0",1,2,4
14,8,1,0.514374017715454,12.3885309696198,1661.96719908714,"0",0,3,4
14,8,2,0.898014068603516,13.4059329032898,1662.98460102081,"0",2,3,4
14,8,1,0.57163405418396,14.4222419261932,1664.00091004372,"0",1,4,4
14,8,1,0.545132160186768,15.4393489360809,1665.0180170536,"0",1,6,4
14,8,1,0.492821931838989,16.4897499084473,1666.0684170723,"0",0,7,4
14,20,1,0.504065036773682,1.9989550113678,1674.11868190765,"0",1,5,4
14,20,1,0.427130937576294,3.99897789955139,1676.11870503426,"0",1,6,4
14,20,1,0.446830987930298,6.01573610305786,1678.13546299934,"0",2,4,4
14,20,1,0.384941816329956,7.99911689758301,1680.11884403229,"0",1,0,4
14,20,1,0.409147977828979,9.99835395812988,1682.11808109283,"0",0,7,4
14,20,1,0.419332981109619,11.9991850852966,1684.11891198158,"0",1,6,4
14,20,1,0.470823049545288,13.9992361068726,1686.11896300316,"0",1,6,4
14,4,0,0.348943948745728,0.350726842880249,1692.52111506462,"0",2,6,4
14,8,1,0.435662031173706,1.99888706207275,1698.55263710022,"0",0,0,4
14,8,1,0.680356979370117,4.01559019088745,1700.56933999062,"0",2,4,4
14,8,1,0.374848127365112,5.99896907806396,1702.55271887779,"0",0,2,4
14,8,1,0.430851936340332,8.01573801040649,1704.56948804855,"0",2,5,4
14,8,1,0.426766157150269,9.99909806251526,1706.55284810066,"0",0,0,4
14,8,1,0.466333866119385,11.9991080760956,1708.55285787582,"0",1,1,4
14,8,1,0.422206878662109,13.9991340637207,1710.55288290977,"0",0,7,4
2,20,1,0.715439796447754,2.01561307907104,1724.15290498734,"0",2,7,5
2,4,1,0.534552812576294,1.99883198738098,1744.22028589249,"0",1,1,5
2,4,1,0.611423015594482,1.99917411804199,1764.27091193199,"0",1,6,5
2,20,1,0.695847988128662,1.99896216392517,1784.32144999504,"0",0,1,5
2,8,1,0.483796119689941,1.99859094619751,1804.37161588669,"0",0,4,5
2,8,1,0.597910165786743,1.99883604049683,1824.42241001129,"0",1,6,5
2,8,1,0.64099383354187,1.99884700775146,1844.47289609909,"0",1,7,5
2,4,1,0.566432952880859,1.99926495552063,1864.52344608307,"0",0,7,5
2,20,1,0.6253981590271,1.99884700775146,1884.57391095161,"0",0,2,5
2,20,1,0.597043991088867,2.01562190055847,1904.64105987549,"0",2,1,5
2,8,1,0.47681713104248,1.99947595596313,1924.69155788422,"0",0,4,5
2,4,1,0.681008815765381,2.01558399200439,1944.75871491432,"0",2,0,5
2,4,1,0.698786020278931,2.01591801643372,1964.82609295845,"0",2,6,5
2,8,1,0.691643953323364,1.99890518188477,1984.87641501427,"0",0,4,5
2,20,1,0.536181926727295,1.99890208244324,2004.92687988281,"0",1,4,5
2,8,1,0.641059875488281,1.99925017356873,2024.97738599777,"0",1,0,5
2,4,1,0.782034873962402,2.01579284667969,2045.04475903511,"0",2,3,5
2,20,1,0.697617053985596,2.01561093330383,2065.11171293259,"0",2,4,5
2,8,1,0.510754823684692,1.99892401695251,2085.16223287582,"0",0,6,5
2,4,1,0.530298948287964,1.99898099899292,2105.21270489693,"0",0,3,5
2,20,1,0.500657081604004,1.99894404411316,2125.26312589645,"0",1,4,5
10,20,1,0.519712924957275,1.99970889091492,2151.31380105019,"0",1,2,6
10,20,1,0.472539186477661,3.99975895881653,2153.31385087967,"0",1,1,6
10,20,2,0.6981360912323,6.01652407646179,2155.33061599731,"0",2,3,6
10,20,2,0.68173885345459,8.01655101776123,2157.33064293861,"0",2,1,6
10,4,0,0.249099016189575,0.254545927047729,2165.61891508102,"0",1,6,6
10,20,1,0.531877994537354,1.9990439414978,2175.64776706696,"0",1,5,6
10,20,1,0.780220985412598,4.01579093933105,2177.66451406479,"0",2,0,6
10,20,1,0.88171911239624,6.01581311225891,2179.66453695297,"0",2,0,6
10,20,1,0.718197107315063,7.99918293952942,2181.64790606499,"0",0,5,6
10,20,1,0.654124021530151,9.99924802780151,2183.64797210693,"0",0,7,6
10,4,0,0.544177770614624,0.547065019607544,2194.24608802795,"0",1,3,6
10,8,1,0.516030073165894,1.99890089035034,2204.28177189827,"0",1,6,6
10,8,1,0.651201009750366,3.99899291992188,2206.28186392784,"0",1,7,6
10,8,1,0.489016056060791,5.99910593032837,2208.28197693825,"0",0,0,6
10,8,1,0.643428087234497,7.99907088279724,2210.28194189072,"0",0,2,6
10,8,1,0.764065980911255,10.0158159732819,2212.2986869812,"0",2,3,6
10,8,1,0.664790868759155,2.01552700996399,2224.36562895775,"0",2,4,6
10,8,1,0.481270790100098,4.01559686660767,2226.36569905281,"0",2,4,6
10,8,1,0.430253028869629,6.01568102836609,2228.36578297615,"0",2,0,6
10,8,1,0.33043098449707,8.01576089859009,2230.36586308479,"0",2,7,6
10,8,1,0.447585105895996,10.0157558917999,2232.365858078,"0",2,4,6
10,20,1,0.485651016235352,1.9988808631897,2244.4161670208,"0",1,0,6
10,20,1,0.470805168151855,3.99890398979187,2246.41618990898,"0",1,6,6
10,20,1,0.548342227935791,6.01566386222839,2248.43295001984,"0",2,0,6
10,20,1,0.407469987869263,7.99903607368469,2250.41632199287,"0",1,5,6
10,20,1,0.398321151733398,9.99906492233276,2252.41635107994,"0",0,1,6
10,8,1,0.566837072372437,1.99894285202026,2264.46669101715,"0",0,0,6
10,8,1,0.452594995498657,3.99893307685852,2266.46668100357,"0",1,1,6
10,8,1,0.450875997543335,5.99901795387268,2268.46676588058,"0",0,3,6
10,8,1,0.476598024368286,7.99906587600708,2270.46681404114,"0",1,6,6
10,8,1,0.497237920761108,9.99911308288574,2272.4668610096,"0",1,3,6
10,4,0,0.256208181381226,0.276398897171021,2282.79459810257,"0",0,1,6
10,8,1,0.464145183563232,1.99884510040283,2292.83405399323,"0",0,2,6
10,8,1,0.483006954193115,3.99889302253723,2294.83410191536,"0",1,6,6
10,8,2,0.448400020599365,6.01558804512024,2296.85079693794,"0",2,2,6
10,8,1,0.403952121734619,7.99898600578308,2298.83419489861,"0",0,6,6
10,8,1,0.473272085189819,9.99897599220276,2300.83418488503,"0",0,4,6
10,4,0,0.315160989761353,0.31734299659729,2311.20265102386,"0",2,2,6
10,20,1,0.503949880599976,1.99886798858643,2321.23473405838,"0",1,2,6
10,20,1,0.414159059524536,4.01561117172241,2323.2514770031,"0",2,7,6
10,20,1,0.426951885223389,5.99897408485413,2325.23483896255,"0",1,0,6
10,20,2,0.798454999923706,8.01569604873657,2327.2515630722,"0",2,3,6
10,20,1,0.513576984405518,9.9991409778595,2329.23500704765,"0",1,3,6
10,20,1,0.48200798034668,1.99882507324219,2341.2852768898,"0",0,6,6
10,20,1,0.447633981704712,4.01552104949951,2343.30197310448,"0",2,7,6
10,20,1,0.480753183364868,6.01553106307983,2345.30198287964,"0",2,3,6
10,20,1,0.420495986938477,7.99895119667053,2347.2854039669,"0",1,7,6
10,20,1,0.45405101776123,9.99899315834045,2349.2854449749,"0",0,2,6
10,4,1,0.499464988708496,1.99894285202026,2361.3357770443,"0",0,5,6
10,4,1,0.491695165634155,3.9989869594574,2363.33582091331,"0",0,0,6
10,4,2,0.681532859802246,6.01570200920105,2365.35253596306,"0",2,1,6
10,4,1,0.47489595413208,7.99907302856445,2367.33590698242,"0",1,0,6
10,4,1,0.497235059738159,9.99910092353821,2369.3359348774,"0",1,4,6
10,8,1,0.686877965927124,1.99888300895691,2381.38625693321,"0",1,0,6
10,8,1,0.473740100860596,3.99891996383667,2383.38629388809,"0",1,2,6
10,8,1,0.74849009513855,6.01566791534424,2385.40304207802,"0",2,3,6
10,8,1,0.386931896209717,7.99902987480164,2387.38640403748,"0",1,5,6
10,8,1,0.42402195930481,9.99907207489014,2389.38644695282,"0",1,0,6
10,4,0,0.298053979873657,0.299962043762207,2399.73778605461,"0",2,7,6
10,8,1,0.499181032180786,1.99921298027039,2409.77029299736,"0",0,2,6
10,8,1,0.5973219871521,4.01593399047852,2411.78701400757,"0",2,0,6
10,8,1,0.407737970352173,5.99934077262878,2413.77042102814,"0",1,6,6
10,8,1,0.415231943130493,8.01600480079651,2415.7870850563,"0",2,5,6
10,8,2,0.479619026184082,9.99944186210632,2417.7705218792,"0",1,5,6
10,20,1,0.502900123596191,1.99903297424316,2429.8208129406,"0",0,3,6
10,20,1,0.553442001342773,3.99906587600708,2431.82084488869,"0",1,1,6
10,20,1,0.465102910995483,6.0158360004425,2433.8376159668,"0",2,4,6
10,20,1,0.486155033111572,7.99914598464966,2435.820925951,"0",0,0,6
10,20,1,0.764651775360107,10.0158689022064,2437.83764910698,"0",2,3,6
10,4,1,0.456984996795654,1.99888396263123,2449.88788890839,"0",0,0,6
10,4,1,0.548083066940308,4.01558303833008,2451.90458798409,"0",2,0,6
10,4,1,0.413991928100586,6.01564884185791,2453.90465402603,"0",2,1,6
10,4,1,0.454182863235474,7.99901795387268,2455.88802289963,"0",0,6,6
10,4,1,0.423532962799072,9.99902701377869,2457.88803100586,"0",1,5,6
10,8,1,0.456184864044189,1.99902892112732,2469.93828988075,"0",1,2,6
10,8,1,0.463634967803955,4.01577997207642,2471.95504188538,"0",2,4,6
10,8,1,0.414892911911011,6.01580786705017,2473.95507001877,"0",2,3,6
10,8,1,0.471527099609375,7.99918103218079,2475.93844294548,"0",0,3,6
10,8,1,0.600815057754517,9.99918508529663,2477.9384469986,"0",1,4,6
10,20,1,0.643499851226807,1.99868416786194,2489.98840999603,"0",0,4,6
10,20,1,0.394150018692017,3.99900317192078,2491.98872900009,"0",1,3,6
10,20,1,0.434094190597534,5.99908304214478,2493.98880910873,"0",1,1,6
10,20,1,0.457458019256592,7.9991340637207,2495.98885989189,"0",1,1,6
10,20,1,0.464193820953369,10.0158460140228,2498.00557208061,"0",2,2,6
10,4,0,0.276787042617798,0.297574996948242,2508.3545320034,"0",0,1,6
10,20,1,0.587257146835327,1.99900221824646,2518.38932800293,"0",0,7,6
10,20,1,0.414861917495728,4.01556301116943,2520.40588903427,"0",2,7,6
10,20,1,0.455265045166016,5.99906706809998,2522.3893930912,"0",0,4,6
10,20,1,0.414582967758179,7.99914216995239,2524.38946890831,"0",0,6,6
10,20,1,0.475238084793091,9.99917912483215,2526.38950395584,"0",0,0,6
10,8,1,0.448839902877808,2.01549196243286,2538.45640397072,"0",2,6,6
10,8,0,3.20090198516846,3.20094084739685,2539.64185404778,"0",0,5,6
10,8,1,0.527905941009521,1.9987199306488,2549.6732480526,"0",1,4,6
10,8,1,0.449322938919067,3.99880695343018,2551.67333507538,"0",0,4,6
10,8,1,0.420783996582031,5.99886202812195,2553.67338991165,"0",0,6,6
10,8,1,0.443895101547241,7.99885511398315,2555.67338204384,"0",1,7,6
10,8,1,0.448029041290283,9.99894595146179,2557.67347407341,"0",0,0,6
