"Handling","Reward","Choice","Task.RT","Choice.RT","Experiment.Time","Trial.Outcome","Task.Type","Task.Setup","Block"
14,4,2,1.00008606910706,1.99933791160583,9.05267190933228,"0",0,7,1
14,4,1,0.742995023727417,4.01592588424683,11.0692598819733,"0",2,3,1
14,4,1,0.976477861404419,5.99934577941895,13.052680015564,"0",0,0,1
14,4,1,0.610484838485718,7.99944090843201,15.0527749061584,"0",1,0,1
14,4,2,0.996773958206177,10.0161018371582,17.0694360733032,"0",2,7,1
14,20,1,0.855629920959473,1.9992311000824,23.1027729511261,"0",1,7,1
14,20,1,0.647695064544678,4.0160539150238,25.1195950508118,"0",2,5,1
14,20,1,0.497496128082275,6.01603889465332,27.1195800304413,"0",2,1,1
14,20,1,0.571766138076782,7.99940991401672,29.1029500961304,"0",1,0,1
14,20,1,0.723649978637695,9.99942493438721,31.1029660701752,"0",0,0,1
14,20,1,0.582716941833496,11.9994690418243,33.103010892868,"0",1,2,1
14,20,2,0.914360046386719,14.0162019729614,35.1197428703308,"0",2,0,1
14,4,0,1.21788597106934,1.21792697906494,42.3887689113617,"0",2,6,1
14,20,1,0.683835983276367,1.99894309043884,48.4199249744415,"0",0,0,1
14,20,1,0.748396158218384,4.01563906669617,50.4366209506989,"0",2,5,1
14,20,1,0.496242046356201,5.99901008605957,52.4199919700623,"0",1,2,1
14,20,1,0.410150051116943,7.99902009963989,54.4200019836426,"0",1,7,1
14,20,1,0.603778839111328,9.99910593032837,56.4200880527496,"0",0,3,1
14,20,1,0.797285079956055,12.0157248973846,58.4367070198059,"0",2,7,1
14,20,1,0.465672016143799,13.9991199970245,60.4201018810272,"0",0,3,1
14,8,1,0.827993869781494,1.99983596801758,68.4702200889587,"0",0,4,1
14,8,2,0.739733934402466,3.99993395805359,70.4703180789948,"0",0,6,1
14,8,2,1.00008702278137,5.99996209144592,72.4703459739685,"0",0,2,1
14,8,1,0.731996059417725,2.0160071849823,78.5204260349274,"0",2,6,1
14,8,1,0.485774040222168,3.99933099746704,80.503751039505,"0",1,4,1
14,8,1,0.486908912658691,5.99936699867249,82.5037870407104,"0",1,2,1
14,8,1,0.527850866317749,7.99949908256531,84.5039188861847,"0",1,2,1
14,8,1,0.781652927398682,10.0161170959473,86.5205368995667,"0",2,1,1
14,8,1,0.928509950637817,11.9994521141052,88.5038709640503,"0",0,4,1
14,8,1,0.880360841751099,13.9995541572571,90.5039739608765,"0",2,7,1
14,4,0,0.732442855834961,0.734311103820801,97.3056130409241,"0",2,4,1
14,20,1,0.562433958053589,1.99900913238525,103.33738899231,"0",1,3,1
14,20,1,0.87777304649353,3.99922609329224,105.337606906891,"0",0,0,1
14,20,1,0.485447883605957,5.99916315078735,107.337543010712,"0",1,2,1
14,20,1,0.866529941558838,7.9991500377655,109.33752989769,"0",0,4,1
14,20,1,0.773897171020508,9.99975395202637,111.338134050369,"0",0,1,1
14,20,2,0.812024116516113,11.9996120929718,113.337991952896,"0",0,4,1
14,20,1,0.764746904373169,14.015988111496,115.35436797142,"0",2,0,1
14,8,1,0.540827035903931,2.00022196769714,123.40446805954,"0",1,3,1
14,8,1,0.354774951934814,4.00022792816162,125.404474020004,"0",1,4,1
14,8,1,0.476696968078613,6.00065994262695,127.40490603447,"0",1,1,1
14,8,1,0.349164962768555,8.00045299530029,129.40469789505,"0",1,3,1
14,8,1,0.381652116775513,10.000559091568,131.404803991318,"0",1,3,1
14,8,1,0.849820852279663,12.0003769397736,133.404623031616,"0",0,0,1
14,8,1,0.545760154724121,14.0003850460052,135.404630899429,"0",1,2,1
14,4,2,1.00005912780762,1.99895787239075,143.45466709137,"0",1,2,1
14,4,0,0.567768096923828,2.59124493598938,144.046952962875,"0",0,2,1
14,20,1,0.800507068634033,1.99896121025085,150.071547985077,"0",0,6,1
14,20,1,0.705748081207275,3.99892616271973,152.071511983871,"0",1,2,1
14,20,1,0.596079111099243,6.01545214653015,154.088038921356,"0",2,2,1
14,20,1,0.814687967300415,7.99900507926941,156.071592092514,"0",0,3,1
14,20,2,0.996936082839966,10.0158090591431,158.088394880295,"0",2,3,1
14,20,1,0.714735984802246,12.0158610343933,160.088448047638,"0",2,0,1
14,20,1,0.711350202560425,13.9991102218628,162.071697950363,"0",0,6,1
14,8,1,0.598652839660645,2.01597309112549,170.138846874237,"0",2,3,1
14,8,1,0.714575052261353,4.01564407348633,172.138516902924,"0",2,0,1
14,8,1,0.865210056304932,6.01505517959595,174.137928962708,"0",2,7,1
14,8,1,0.605962991714478,7.99932622909546,176.122200012207,"0",0,0,1
14,8,1,0.776531219482422,9.99908900260925,178.121963024139,"0",0,4,1
14,8,1,0.781723976135254,12.0157091617584,180.13858294487,"0",2,6,1
14,8,1,0.598376989364624,14.0158171653748,182.138690948486,"0",2,0,1
14,8,0,1.06779003143311,1.06783008575439,189.257571935654,"0",2,1,1
14,20,1,0.716233968734741,1.99898290634155,195.288904905319,"0",1,1,1
14,20,1,0.548212051391602,4.01574492454529,197.305665969849,"0",2,3,1
14,20,1,0.498626947402954,6.01586580276489,199.305788993835,"0",2,4,1
14,20,1,0.662903070449829,7.99907279014587,201.288994073868,"0",0,2,1
14,20,1,0.70564603805542,9.9991238117218,203.289046049118,"0",0,1,1
14,20,2,1.0000741481781,11.9992218017578,205.289144039154,"0",0,5,1
14,20,1,0.947423934936523,14.015823841095,207.305746078491,"0",2,4,1
14,4,0,0.397341012954712,0.401774883270264,213.758665084839,"0",1,4,1
14,20,1,0.719122886657715,1.9989800453186,219.789292097092,"0",1,6,1
14,20,2,0.996961116790771,4.01566696166992,221.805978059769,"0",2,1,1
14,20,1,0.546809911727905,5.99907898902893,223.789391040802,"0",1,6,1
14,20,1,0.515055894851685,8.01577997207642,225.806091070175,"0",2,4,1
14,20,1,0.831615924835205,10.0157651901245,227.806077957153,"0",2,6,1
14,20,1,0.477234125137329,11.9991371631622,229.789448976517,"0",1,7,1
14,20,1,0.431236028671265,13.9991731643677,231.789484977722,"0",1,7,1
14,4,0,0.416473865509033,0.420913934707642,238.261560916901,"0",1,1,1
14,8,1,0.64922308921814,2.01618003845215,244.306292057037,"0",2,4,1
14,8,1,0.662990093231201,4.0162410736084,246.306353092194,"0",2,6,1
14,8,1,0.547564029693604,6.01626706123352,248.306377887726,"0",2,7,1
14,8,2,0.535890102386475,7.99967503547668,250.289787054062,"0",1,1,1
14,8,1,0.756887912750244,9.99968314170837,252.289794921875,"0",0,4,1
14,8,1,0.528843879699707,11.9997460842133,254.289858102798,"0",1,1,1
14,8,1,0.56486701965332,14.0164370536804,256.306549072266,"0",2,4,1
14,4,0,0.397135972976685,0.400045871734619,262.757428884506,"0",1,3,1
14,20,1,0.567034006118774,1.99891591072083,268.790092945099,"0",1,4,1
14,20,1,0.802808046340942,3.99882483482361,270.790001869202,"0",0,4,1
14,20,1,0.599557876586914,5.99894285202026,272.790121078491,"0",0,7,1
14,20,1,0.698086977005005,7.99900388717651,274.790181875229,"0",1,6,1
14,20,1,0.686974048614502,9.99902486801147,276.79020190239,"0",0,6,1
14,20,1,0.692010164260864,11.9990499019623,278.790227890015,"0",0,5,1
14,20,1,0.457976102828979,13.9990839958191,280.790261983871,"0",1,5,1
14,8,1,0.613633871078491,2.016037940979,288.857537031174,"0",2,1,1
14,8,1,0.66413402557373,4.01559400558472,290.857093095779,"0",2,0,1
14,8,1,0.964136838912964,6.01560807228088,292.857106924057,"0",2,0,1
14,8,1,0.509469985961914,7.99901509284973,294.840513944626,"0",1,5,1
14,8,1,0.599273920059204,9.99901604652405,296.840513944626,"0",0,6,1
14,8,1,0.486359119415283,11.9990141391754,298.840512990952,"0",0,6,1
14,8,1,0.608578205108643,13.9990770816803,300.840575933456,"0",1,0,1
14,8,1,0.897948026657104,2.01561999320984,308.907377004623,"0",2,6,1
14,8,1,0.482874870300293,3.99895882606506,310.890716075897,"0",1,3,1
14,8,1,0.497164964675903,5.99903798103333,312.890794992447,"0",1,6,1
14,8,1,0.781522989273071,8.01570677757263,314.90746307373,"0",2,2,1
14,8,1,0.511960029602051,9.99880981445312,316.890567064285,"0",1,1,1
14,8,1,0.990573883056641,11.9990739822388,318.890830993652,"0",0,4,1
14,8,1,0.466518878936768,13.9991838932037,320.890940904617,"0",0,4,1
14,20,1,0.656888961791992,1.99901819229126,328.941015005112,"0",1,2,1
14,20,1,0.681243896484375,4.01573610305786,330.957732915878,"0",2,1,1
14,20,1,0.631687879562378,6.01574301719666,332.957740068436,"0",2,6,1
14,20,1,0.662996053695679,8.01578712463379,334.95778298378,"0",2,1,1
14,20,1,0.614788055419922,10.0157930850983,336.957791090012,"0",2,2,1
14,20,1,0.771710872650146,11.9991590976715,338.941155910492,"0",0,0,1
14,20,1,0.836054801940918,13.9992370605469,340.941233873367,"0",0,2,1
14,4,0,0.333422899246216,0.335301876068115,347.326665878296,"0",2,5,1
14,8,1,0.615142107009888,2.01562404632568,353.374733924866,"0",2,1,1
14,8,1,0.648355960845947,4.01566004753113,355.374770879745,"0",2,3,1
14,8,1,0.688645124435425,5.99904108047485,357.358150959015,"0",0,4,1
14,8,1,0.5483558177948,8.01574110984802,359.374850988388,"0",2,1,1
14,8,1,0.564827919006348,9.99908208847046,361.35819196701,"0",1,5,1
14,8,1,0.453417062759399,11.9991269111633,363.358237028122,"0",1,2,1
14,8,1,0.674356937408447,13.9991610050201,365.35827088356,"0",0,7,1
14,4,1,0.524106979370117,1.99886393547058,373.408366918564,"0",0,0,1
14,4,1,0.419198036193848,3.99892401695251,375.408427000046,"0",0,0,1
14,4,1,0.9812171459198,6.015625,377.425127983093,"0",2,7,1
14,4,1,0.593785047531128,7.99900102615356,379.408504009247,"0",0,4,1
14,4,1,0.448446035385132,10.0156438350677,381.42514705658,"0",2,3,1
14,4,1,0.623378992080688,11.9990348815918,383.408538103104,"0",0,1,1
14,4,1,0.531677961349487,14.0157639980316,385.425266981125,"0",2,4,1
14,8,1,0.501552104949951,1.99913120269775,393.475440979004,"0",0,3,1
14,8,1,0.621206045150757,3.9991180896759,395.475428104401,"0",0,1,1
14,8,1,0.683102130889893,5.9991512298584,397.475461006165,"0",0,2,1
14,8,1,0.446907043457031,7.998939037323,399.475249052048,"0",0,7,1
14,8,1,0.471482038497925,9.99924516677856,401.475554943085,"0",1,7,1
14,8,1,0.531444072723389,12.0158770084381,403.492187023163,"0",2,1,1
14,8,1,0.631531000137329,14.0159411430359,405.492250919342,"0",2,1,1
14,20,1,0.549211025238037,1.99908113479614,413.542424917221,"0",0,7,1
14,20,1,0.647512197494507,4.01551222801208,415.558856010437,"0",2,1,1
14,20,1,0.748464822769165,6.01571822166443,417.559062004089,"0",2,6,1
14,20,1,0.540433168411255,7.99911117553711,419.542454957962,"0",0,7,1
14,20,1,0.631513118743896,10.0158360004425,421.559180021286,"0",2,3,1
14,20,1,0.438285112380981,11.9991869926453,423.542531967163,"0",1,3,1
14,20,1,0.781001806259155,14.0158531665802,425.559196949005,"0",2,6,1
2,20,1,0.675457954406738,1.99926900863647,439.692789077759,"0",0,5,2
2,4,1,0.765178203582764,2.01573300361633,459.759798049927,"0",2,4,2
2,4,0,0.365144014358521,0.366898059844971,478.177902936935,"0",2,4,2
2,20,1,0.646375894546509,2.01549816131592,496.226964950562,"0",2,0,2
2,8,1,0.699282884597778,1.999666929245,516.277674913406,"0",0,4,2
2,8,1,0.565083026885986,2.01566696166992,536.344299077988,"0",2,1,2
2,4,1,0.790882110595703,1.99899387359619,556.394576072693,"0",0,7,2
2,20,1,0.56516695022583,1.9989800453186,576.444866895676,"0",0,6,2
2,20,1,0.666424036026001,1.9988489151001,596.495181083679,"0",0,1,2
2,8,1,0.614553928375244,2.01560997962952,616.562165021896,"0",2,5,2
2,8,1,0.531340837478638,1.99900913238525,636.612488985062,"0",0,3,2
2,4,0,0.312905073165894,0.317353010177612,654.981235980988,"0",1,4,2
2,20,1,0.777045011520386,1.99887108802795,673.013012886047,"0",1,2,2
2,4,0,0.310135841369629,0.329370021820068,691.393790960312,"0",0,7,2
2,4,1,0.760917901992798,1.99899101257324,709.430294036865,"0",1,2,2
2,8,1,0.656922101974487,1.99895215034485,729.480547904968,"0",1,2,2
2,8,1,0.975269079208374,1.9989640712738,749.530891895294,"0",0,7,2
2,20,1,0.664223194122314,1.99900698661804,769.581203937531,"0",0,4,2
2,20,1,0.641916990280151,1.99865007400513,789.631511926651,"0",1,1,2
2,4,1,0.748246908187866,2.01571011543274,809.698504924774,"0",2,6,2
2,4,1,0.476359128952026,1.99900913238525,829.74881196022,"0",1,5,2
2,8,1,0.593768835067749,1.99904298782349,849.79913187027,"0",0,0,2
10,4,1,0.579155921936035,1.99899196624756,875.949524879456,"0",1,5,3
10,4,0,3.44890093803406,3.44894194602966,877.399473905563,"0",0,7,3
10,4,0,0.343684911727905,0.363003969192505,886.138943910599,"0",0,6,3
10,20,1,0.811885118484497,1.99891304969788,896.175014972687,"0",1,4,3
10,20,1,0.701112985610962,3.99907088279724,898.175173044205,"0",0,6,3
10,20,1,0.80771279335022,5.9990029335022,900.17510509491,"0",0,5,3
10,20,1,0.550956964492798,7.99903798103333,902.175139904022,"0",0,4,3
10,20,1,0.879249811172485,10.0156919956207,904.19179391861,"0",2,3,3
10,8,1,0.663933992385864,2.01568293571472,916.258786916733,"0",2,2,3
10,8,1,0.510528087615967,3.99869799613953,918.241801977158,"0",1,5,3
10,8,1,0.680865049362183,6.0159068107605,920.259011030197,"0",2,3,3
10,8,1,0.631094932556152,8.01563191413879,922.258735895157,"0",2,1,3
10,8,1,0.565672874450684,9.99907994270325,924.242183923721,"0",1,6,3
10,8,1,0.567209959030151,1.99925518035889,936.29231595993,"0",1,3,3
10,8,1,0.49885106086731,3.99932813644409,938.292388916016,"0",1,2,3
10,8,1,0.500257015228271,5.99933815002441,940.292398929596,"0",1,6,3
10,8,1,0.451435089111328,7.99935507774353,942.292416095734,"0",1,4,3
10,8,1,0.731582880020142,10.0160660743713,944.309127092361,"0",2,2,3
10,20,1,0.801308155059814,1.99894022941589,956.359313011169,"0",0,5,3
10,20,1,0.498486995697021,3.99892616271973,958.359298944473,"0",1,5,3
10,20,1,0.600625991821289,5.99907517433167,960.359447956085,"0",0,7,3
10,20,2,1.00005388259888,7.99901509284973,962.359387874603,"0",0,1,3
10,20,1,0.612137079238892,9.99904918670654,964.359421014786,"0",0,1,3
10,20,1,0.783884048461914,1.99896693229675,976.409635066986,"0",0,2,3
10,20,1,0.580808877944946,4.01571011543274,978.426377058029,"0",2,5,3
10,20,1,0.603883028030396,5.99902296066284,980.409691095352,"0",1,6,3
10,20,1,0.642674922943115,7.99906897544861,982.409736871719,"0",0,5,3
10,20,1,0.881593942642212,10.015743970871,984.426410913467,"0",2,1,3
10,4,0,0.289839029312134,0.309355974197388,994.786900997162,"0",0,5,3
10,4,0,0.299123048782349,0.301282167434692,1003.12877202034,"0",2,4,3
10,8,1,0.635423183441162,1.99905300140381,1013.16023087502,"0",0,0,3
10,8,1,0.535898208618164,3.99909996986389,1015.16027808189,"0",1,1,3
10,8,1,0.547975063323975,6.0157949924469,1017.17697310448,"0",2,5,3
10,8,1,0.522816896438599,7.99909996986389,1019.16027808189,"0",0,6,3
10,8,1,0.5674889087677,9.99920892715454,1021.16038608551,"0",1,2,3
10,8,0,0.348436117172241,0.369146108627319,1031.58074498177,"0",0,6,3
10,20,1,0.623504161834717,1.99898409843445,1041.61068987846,"0",1,1,3
10,20,1,0.604671955108643,3.99897313117981,1043.61067891121,"0",0,6,3
10,20,1,0.496490955352783,5.99923205375671,1045.61093902588,"0",0,7,3
10,20,1,0.531208992004395,8.01573204994202,1047.62743806839,"0",2,7,3
10,20,1,0.458391904830933,9.9990770816803,1049.61078310013,"0",1,6,3
10,8,0,0.33653998374939,0.355949878692627,1060.01803207397,"0",0,4,3
10,20,1,0.589051961898804,1.9989960193634,1070.04445791245,"0",0,7,3
10,20,1,0.491564989089966,3.9990611076355,1072.04452300072,"0",0,2,3
10,20,1,0.597781181335449,6.01572895050049,1074.061191082,"0",2,5,3
10,20,1,0.663603067398071,8.01577806472778,1076.06123900414,"0",2,4,3
10,20,1,0.629781007766724,10.0157821178436,1078.06124305725,"0",2,1,3
10,4,0,1.9840259552002,1.9840669631958,1090.09648108482,"0",0,5,3
10,8,1,0.598635911941528,2.01560020446777,1100.14491200447,"0",2,7,3
10,8,1,0.77109694480896,3.99896597862244,1102.12827801704,"0",0,4,3
10,8,1,0.500514984130859,5.99897503852844,1104.12828707695,"0",1,6,3
10,8,1,0.440768003463745,7.99904417991638,1106.12835597992,"0",0,7,3
10,8,2,0.437359809875488,9.99912905693054,1108.12844109535,"0",1,1,3
10,20,1,0.795798778533936,1.9988579750061,1120.178606987,"0",0,4,3
10,20,1,0.514999151229858,4.01554298400879,1122.195291996,"0",2,1,3
10,20,1,0.465368986129761,5.99890995025635,1124.17865800858,"0",1,2,3
10,20,1,0.492675065994263,7.99894094467163,1126.17868995667,"0",0,4,3
10,20,1,0.480046033859253,9.99897384643555,1128.17872309685,"0",0,4,3
10,4,0,0.31543493270874,0.317440986633301,1138.54738807678,"0",2,6,3
10,4,0,0.315433979034424,0.317189931869507,1146.89721989632,"0",2,3,3
10,8,0,0.396869897842407,0.402245044708252,1155.33222699165,"0",1,7,3
10,20,1,0.606974124908447,1.99904704093933,1165.3628180027,"0",1,1,3
10,20,1,0.796202898025513,3.99891781806946,1167.36268806458,"0",0,2,3
10,20,1,0.631677150726318,5.99889183044434,1169.36266303062,"0",1,7,3
10,20,1,0.631535053253174,8.0156078338623,1171.37937808037,"0",2,5,3
10,20,1,0.647822856903076,10.0156438350677,1173.37941503525,"0",2,5,3
10,20,1,0.532291173934937,1.99912810325623,1185.42964100838,"0",0,0,3
10,20,1,0.457347869873047,3.99915790557861,1187.42967009544,"0",0,4,3
10,20,1,0.550336837768555,5.99918293952942,1189.42969608307,"0",1,0,3
10,20,1,0.998081922531128,7.99921894073486,1191.42973089218,"0",2,2,3
10,20,1,0.431696176528931,10.0159010887146,1193.44641399384,"0",2,2,3
10,4,0,1.41772484779358,1.41776490211487,1204.91536593437,"0",2,4,3
10,8,0,0.397186040878296,0.399068117141724,1213.34698295593,"0",2,4,3
10,8,1,0.590007066726685,1.99896883964539,1223.38025403023,"0",0,0,3
10,8,1,0.64995002746582,3.99880194664001,1225.3800868988,"0",0,3,3
10,8,1,0.539824962615967,5.9989709854126,1227.38025593758,"0",0,2,3
10,8,1,0.579625844955444,7.99859595298767,1229.37987995148,"0",1,6,3
10,8,1,0.697127819061279,10.015743970871,1231.39702892303,"0",2,2,3
10,20,1,0.58203911781311,2.01562905311584,1243.46384692192,"0",2,1,3
10,20,1,0.567758083343506,3.99897599220276,1245.44719409943,"0",0,2,3
10,20,1,0.569372892379761,5.99883413314819,1247.44705200195,"0",0,7,3
10,20,1,0.588799953460693,7.99906706809998,1249.4472849369,"0",1,6,3
10,20,1,0.611026048660278,9.99912810325623,1251.44734501839,"0",0,3,3
10,4,0,0.249191999435425,0.25095009803772,1261.79939198494,"0",2,0,3
10,20,1,0.531826972961426,2.01580095291138,1271.84774708748,"0",2,3,3
10,20,1,0.580727100372314,4.01572895050049,1273.84767508507,"0",2,2,3
10,20,1,0.518871068954468,5.99910402297974,1275.83104991913,"0",1,0,3
10,20,1,0.576694965362549,7.99911403656006,1277.83105993271,"0",0,1,3
10,20,1,0.513544082641602,10.015811920166,1279.84775805473,"0",2,2,3
14,20,1,0.698386907577515,2.01643705368042,1315.26528787613,"0",2,0,4
14,20,1,0.563392877578735,3.99953103065491,1317.24838209152,"0",1,1,4
14,20,1,0.580649852752686,6.01619100570679,1319.26504206657,"0",2,1,4
14,20,1,0.548055171966553,8.0162341594696,1321.26508498192,"0",2,5,4
14,20,1,0.5345458984375,9.99961996078491,1323.24847102165,"0",1,5,4
14,20,2,0.996413946151733,12.0163090229034,1325.26516008377,"0",2,3,4
14,20,1,0.714884996414185,14.0163161754608,1327.26516699791,"0",2,0,4
14,4,0,0.284111976623535,0.303408145904541,1333.61944103241,"0",0,6,4
14,4,0,0.297044992446899,0.298920869827271,1337.94867491722,"0",2,0,4
14,8,1,0.587347984313965,1.99883103370667,1343.98210692406,"0",1,3,4
14,8,2,1.00005602836609,3.9989070892334,1345.98218393326,"0",0,5,4
14,8,1,0.696412086486816,5.99892115592957,1347.98219799995,"0",1,6,4
14,8,1,0.661068916320801,7.99846005439758,1349.98173689842,"0",0,4,4
14,8,1,0.528249979019165,9.9989869594574,1351.9822640419,"0",0,2,4
14,8,1,0.548395156860352,12.0157380104065,1353.99901509285,"0",2,1,4
14,8,1,0.704355001449585,13.9990639686584,1355.9823410511,"0",0,3,4
14,8,0,0.282081127166748,0.284213066101074,1362.31784892082,"0",2,0,4
14,20,1,0.627217054367065,1.99884915351868,1368.34921097755,"0",1,6,4
14,20,2,0.614887952804565,4.01555514335632,1370.36591696739,"0",2,7,4
14,20,1,0.512642860412598,5.99890899658203,1372.34927105904,"0",1,2,4
14,20,1,0.554782867431641,7.99884605407715,1374.34920787811,"0",1,1,4
14,20,1,0.506273031234741,9.99890518188477,1376.34926700592,"0",1,2,4
14,20,1,0.602530956268311,11.9989991188049,1378.34936094284,"0",0,6,4
14,20,1,0.567765951156616,13.9990131855011,1380.34937500954,"0",0,3,4
14,20,1,0.512351036071777,1.99902701377869,1388.3995449543,"0",1,5,4
14,20,1,0.403791904449463,3.99904704093933,1390.39956498146,"0",1,7,4
14,20,1,0.663910150527954,6.01571583747864,1392.41623401642,"0",2,0,4
14,20,1,0.475614786148071,7.99910092353821,1394.39961910248,"0",1,2,4
14,20,1,0.628106117248535,9.99914193153381,1396.39965987206,"0",0,2,4
14,20,1,0.535130977630615,11.9991960525513,1398.39971399307,"0",1,6,4
14,20,1,0.602483034133911,13.9991719722748,1400.3996899128,"0",0,5,4
14,4,0,0.280323028564453,0.283611059188843,1406.73449802399,"0",1,5,4
14,20,1,0.522541999816895,1.99897694587708,1412.76656508446,"0",1,5,4
14,20,1,0.605684041976929,3.99905395507812,1414.76664209366,"0",0,0,4
14,20,1,0.426705837249756,5.99904894828796,1416.76663708687,"0",0,0,4
14,20,1,0.606437921524048,7.99908804893494,1418.7666759491,"0",0,6,4
14,20,1,0.587623119354248,9.99916791915894,1420.76675605774,"0",1,6,4
14,20,1,0.64841103553772,12.0158529281616,1422.78344106674,"0",2,1,4
14,20,1,0.713624000549316,14.0158638954163,1424.783452034,"0",2,6,4
14,8,0,0.342278957366943,0.361431121826172,1431.19578504562,"0",0,0,4
14,4,0,0.282004833221436,0.284898042678833,1435.51915287971,"0",1,3,4
14,8,1,0.598304986953735,2.01556992530823,1441.56704592705,"0",2,2,4
14,8,2,0.435635805130005,3.99889397621155,1443.55036997795,"0",1,1,4
14,8,1,0.640498161315918,5.99899697303772,1445.5504720211,"0",0,3,4
14,8,1,0.630802869796753,8.01573896408081,1447.56721496582,"0",2,4,4
14,8,1,0.702560186386108,9.99904489517212,1449.55052089691,"0",0,7,4
14,8,1,0.581689834594727,12.0157299041748,1451.56720590591,"0",2,0,4
14,8,1,0.487700939178467,13.9990999698639,1453.55057692528,"0",1,4,4
14,4,0,0.348903179168701,0.350674152374268,1459.95231604576,"0",2,1,4
14,4,0,0.616534948348999,0.619424104690552,1464.60438394547,"0",1,0,4
14,8,1,0.648291110992432,2.015625,1470.65089893341,"0",2,6,4
14,8,1,0.504342079162598,3.99890494346619,1472.63417887688,"0",0,7,4
14,8,1,0.452043056488037,5.99892592430115,1474.63420009613,"0",1,3,4
14,8,1,0.476522922515869,7.99897885322571,1476.63425302505,"0",1,7,4
14,8,1,0.581646919250488,10.015725851059,1478.65100002289,"0",2,2,4
14,8,1,0.421581029891968,11.9990508556366,1480.63432502747,"0",1,4,4
14,8,1,0.627238035202026,13.9990799427032,1482.63435292244,"0",1,2,4
14,20,1,0.564133882522583,1.99897384643555,1490.68446207047,"0",1,0,4
14,20,1,0.552871942520142,3.99909591674805,1492.68458390236,"0",1,4,4
14,20,1,0.698305130004883,6.01575779914856,1494.70124602318,"0",2,4,4
14,20,1,0.526221036911011,7.99907898902893,1496.68456602097,"0",0,4,4
14,20,1,0.640095949172974,9.99910593032837,1498.68459391594,"0",0,1,4
14,20,1,0.483028173446655,11.9991798400879,1500.68466806412,"0",1,3,4
14,20,1,0.631112813949585,14.0158808231354,1502.70136904716,"0",2,5,4
14,8,0,0.266264200210571,0.285780906677246,1509.03787088394,"0",0,3,4
14,20,1,0.647979974746704,2.01560091972351,1515.08491706848,"0",2,6,4
14,20,1,0.533208131790161,3.99896311759949,1517.06827902794,"0",1,2,4
14,20,1,0.524420022964478,5.99860191345215,1519.06791901588,"0",0,3,4
14,20,1,0.467010974884033,7.99896192550659,1521.06827902794,"0",1,4,4
14,20,1,0.543287992477417,9.99901700019836,1523.06833410263,"0",0,6,4
14,20,1,0.663995981216431,12.01571393013,1525.08503103256,"0",2,4,4
14,20,1,0.493815898895264,13.9991109371185,1527.06842803955,"0",1,0,4
14,4,0,0.332217931747437,0.334657907485962,1533.45418310165,"0",2,4,4
14,8,1,0.454220056533813,1.99915099143982,1539.48544096947,"0",1,4,4
14,8,1,0.431046009063721,3.99900984764099,1541.48530006409,"0",1,3,4
14,8,1,0.496533155441284,5.99904584884644,1543.48533606529,"0",1,2,4
14,8,1,0.531431913375854,7.99910283088684,1545.48539304733,"0",1,2,4
14,8,1,0.658209085464478,9.99911093711853,1547.48540091515,"0",0,2,4
14,8,1,0.564913034439087,12.0158128738403,1549.50210309029,"0",2,7,4
14,8,1,0.477344036102295,13.9991738796234,1551.48546409607,"0",0,1,4
14,20,1,0.608360052108765,1.99910688400269,1559.53563404083,"0",0,1,4
14,20,1,0.581496953964233,4.01580095291138,1561.55232787132,"0",2,2,4
14,20,1,0.410087108612061,5.99912595748901,1563.5356528759,"0",1,4,4
14,20,1,0.54252290725708,7.99914789199829,1565.53567504883,"0",0,0,4
14,20,1,0.530166864395142,10.0159058570862,1567.55243301392,"0",2,5,4
14,20,1,0.555627822875977,11.9992458820343,1569.53577303886,"0",0,3,4
14,20,1,0.53071403503418,13.9992399215698,1571.5357670784,"0",0,2,4
14,4,0,0.283020973205566,0.289983987808228,1577.87666797638,"0",1,7,4
14,8,1,0.614037036895752,2.01570892333984,1583.91928291321,"0",2,7,4
14,8,0,0.0775160789489746,2.09997987747192,1584.00355291367,"0",1,4,4
14,20,1,0.621390819549561,1.99889707565308,1590.0360429287,"0",1,0,4
14,20,2,0.731518030166626,4.01582312583923,1592.05296993256,"0",2,3,4
14,20,1,0.41090989112854,5.99902200698853,1594.03616690636,"0",1,5,4
14,20,1,0.562790870666504,8.0156729221344,1596.05281996727,"0",2,6,4
14,20,1,0.430325031280518,10.0157010555267,1598.05284690857,"0",2,4,4
14,20,1,0.778300046920776,11.9990911483765,1600.03623700142,"0",0,7,4
14,20,1,0.698088884353638,14.0156681537628,1602.05281400681,"0",2,0,4
14,20,1,0.553836107254028,1.9990541934967,1610.10300397873,"0",1,0,4
14,20,1,0.831891059875488,3.99915409088135,1612.10310387611,"0",0,5,4
14,20,1,0.595139980316162,5.9992311000824,1614.10318088531,"0",0,4,4
14,20,1,0.747943878173828,8.01588201522827,1616.11983203888,"0",2,7,4
14,20,1,0.607511043548584,9.99923300743103,1618.10318303108,"0",1,1,4
14,20,1,0.471276998519897,11.9993371963501,1620.10328698158,"0",1,5,4
14,20,1,0.503741979598999,13.9993300437927,1622.10327887535,"0",1,0,4
14,8,0,1.46770286560059,1.46774387359619,1629.6221010685,"0",1,7,4
14,4,0,0.265608072280884,0.285093069076538,1633.9393799305,"0",0,5,4
14,4,0,0.467139005661011,0.470026016235352,1638.44123792648,"0",1,3,4
14,20,1,0.564248085021973,2.0156888961792,1644.48704504967,"0",2,7,4
14,20,1,0.481733083724976,3.99899196624756,1646.47034692764,"0",1,2,4
14,20,1,0.381609916687012,5.99902296066284,1648.47037887573,"0",1,4,4
14,20,1,0.566442966461182,7.99904298782349,1650.47039890289,"0",0,1,4
14,20,1,0.514827966690063,10.0157270431519,1652.48708295822,"0",2,3,4
14,20,1,0.460211992263794,11.9991300106049,1654.47048592567,"0",1,5,4
14,20,1,0.500850200653076,13.9991788864136,1656.4705350399,"0",1,1,4
14,8,0,0.297242879867554,0.299005031585693,1662.82058405876,"0",2,2,4
14,4,0,1.40100502967834,1.40104603767395,1668.25611400604,"0",2,2,4
14,20,1,0.564779043197632,1.99905800819397,1674.28745889664,"0",0,7,4
14,20,1,0.581683874130249,4.01571798324585,1676.30412006378,"0",2,5,4
14,20,1,0.562689065933228,5.99907493591309,1678.28747701645,"0",0,2,4
14,20,1,0.641577959060669,7.99920201301575,1680.28760409355,"0",0,5,4
14,20,1,0.424944877624512,9.99917793273926,1682.28758096695,"0",1,4,4
14,20,1,0.651276111602783,11.9991691112518,1684.28757095337,"0",0,5,4
14,20,1,0.519518852233887,13.9991979598999,1686.28760004044,"0",1,2,4
14,20,1,0.581372022628784,2.01561188697815,1694.35441589355,"0",2,7,4
14,20,1,0.50857400894165,3.99897980690002,1696.3377840519,"0",0,1,4
14,20,1,0.498301982879639,6.01564884185791,1698.35445189476,"0",2,1,4
14,20,1,0.513418912887573,8.01564192771912,1700.3544459343,"0",2,6,4
14,20,1,0.698384046554565,10.0158767700195,1702.35468196869,"0",2,7,4
14,20,1,0.57464599609375,11.9991188049316,1704.33792304993,"0",0,0,4
14,20,1,0.512829065322876,13.9987168312073,1706.33751988411,"0",0,7,4
14,8,1,0.556136131286621,1.99937415122986,1714.3880879879,"0",0,0,4
14,8,1,0.605920076370239,3.99854302406311,1716.38725709915,"0",1,6,4
14,8,1,0.428828001022339,5.99945497512817,1718.38816905022,"0",0,5,4
14,8,1,0.572569131851196,7.99948310852051,1720.38819694519,"0",0,2,4
14,8,1,0.664420127868652,10.0161321163177,1722.40484499931,"0",2,4,4
14,8,1,0.563855886459351,12.0162680149078,1724.40498209,"0",2,5,4
14,8,1,0.46041202545166,13.9996089935303,1726.38832306862,"0",1,3,4
2,8,1,0.442822933197021,1.99962687492371,1740.22183704376,"0",1,5,5
2,20,1,0.546880960464478,2.01566791534424,1760.2890188694,"0",2,4,5
2,8,1,0.590862989425659,1.99894499778748,1780.33910298347,"0",1,4,5
2,20,1,0.519574165344238,1.99911117553711,1800.38943696022,"0",0,0,5
2,4,1,0.565079212188721,2.01560211181641,1820.45643401146,"0",2,5,5
2,4,1,0.649413108825684,1.99901580810547,1840.50676202774,"0",1,6,5
2,20,1,0.581305027008057,2.01584005355835,1860.57393503189,"0",2,6,5
2,4,1,0.676154136657715,1.99893307685852,1880.62398600578,"0",1,1,5
2,8,1,0.568152189254761,1.99882411956787,1900.67428994179,"0",1,5,5
2,4,1,0.695198059082031,1.99899697303772,1920.7246658802,"0",0,5,5
2,8,1,0.490591049194336,1.99905014038086,1940.77501797676,"0",1,2,5
2,20,1,0.610974073410034,1.99888014793396,1960.82529497147,"0",0,4,5
2,20,1,0.651459932327271,1.99891400337219,1980.87558507919,"0",1,6,5
2,8,1,0.630028963088989,1.99899506568909,2000.92591190338,"0",1,1,5
2,8,1,0.501446962356567,1.99901580810547,2020.97622704506,"0",1,7,5
2,4,1,0.534832000732422,1.99893403053284,2041.02650690079,"0",0,0,5
2,4,1,0.641227960586548,1.99901604652405,2061.07692599297,"0",0,7,5
2,20,1,0.665045976638794,2.01568603515625,2081.14385509491,"0",2,7,5
2,8,1,0.730744123458862,1.99884986877441,2101.19413709641,"0",0,4,5
2,4,1,0.987658023834229,1.99934101104736,2121.24468302727,"0",1,0,5
2,20,1,0.548365116119385,2.01550197601318,2141.31142902374,"0",2,2,5
10,4,0,0.260509967803955,0.264255046844482,2165.67689204216,"0",1,2,6
10,8,1,0.580496788024902,2.01589202880859,2175.72890210152,"0",2,3,6
10,8,1,0.411062002182007,3.99900412559509,2177.71201205254,"0",1,7,6
10,8,1,0.401692867279053,5.99937605857849,2179.71238493919,"0",1,4,6
10,8,1,0.400844097137451,7.99938797950745,2181.71239709854,"0",1,2,6
10,8,1,0.352379083633423,9.99908494949341,2183.7120950222,"0",1,3,6
10,8,1,0.676175117492676,1.99904894828796,2195.76233196259,"0",1,0,6
10,8,1,0.564352035522461,4.01574182510376,2197.77902603149,"0",2,1,6
10,8,1,0.572494029998779,5.99909687042236,2199.76238107681,"0",0,5,6
10,8,1,0.389330863952637,7.99914598464966,2201.76242995262,"0",0,5,6
10,8,1,0.598333120346069,10.0158348083496,2203.77911806107,"0",2,4,6
10,4,0,0.433228969573975,0.437637090682983,2214.26795005798,"0",1,1,6
10,20,1,0.631389856338501,2.01563215255737,2224.3127720356,"0",2,1,6
10,20,1,0.563349008560181,4.01570010185242,2226.31284093857,"0",2,2,6
10,20,1,0.597574949264526,5.99901294708252,2228.29615402222,"0",0,3,6
10,20,1,0.601000070571899,7.99908900260925,2230.29622888565,"0",0,2,6
10,20,1,0.38107705116272,9.99910402297974,2232.29624605179,"0",0,6,6
10,20,1,0.690519094467163,1.99896883964539,2244.34646606445,"0",0,4,6
10,20,1,0.551048994064331,3.99897289276123,2246.34646987915,"0",1,7,6
10,20,1,0.467180013656616,5.99902200698853,2248.34651899338,"0",1,3,6
10,20,1,0.447702884674072,7.99904179573059,2250.34653902054,"0",0,3,6
10,20,1,0.558120965957642,9.99889993667603,2252.34639692307,"0",1,2,6
10,4,0,0.836359977722168,0.843683004379272,2263.24159693718,"0",1,6,6
10,8,1,0.78456711769104,1.99897289276123,2273.28024888039,"0",1,1,6
10,8,1,0.51478910446167,4.01564478874207,2275.29692006111,"0",2,1,6
10,8,1,0.481709957122803,6.01531291007996,2277.29658889771,"0",2,2,6
10,8,1,0.782226085662842,7.99899482727051,2279.28027105331,"0",0,1,6
10,8,1,0.664598941802979,10.0157718658447,2281.29704809189,"0",2,2,6
10,20,1,0.598253965377808,2.01581692695618,2293.36387491226,"0",2,4,6
10,20,1,0.552040815353394,3.99918794631958,2295.34724593163,"0",0,5,6
10,20,1,0.802002906799316,5.9991979598999,2297.34725689888,"0",1,1,6
10,20,1,0.79121208190918,7.99925804138184,2299.34731698036,"0",0,6,6
10,20,1,0.557465076446533,9.99924492835999,2301.34730386734,"0",1,5,6
10,4,0,0.282934904098511,0.302417039871216,2311.70057702065,"0",0,7,6
10,8,1,0.547239065170288,2.01564717292786,2321.74766397476,"0",2,2,6
10,8,1,0.677351951599121,3.99900007247925,2323.73101687431,"0",0,3,6
10,8,1,0.455383777618408,5.99891519546509,2325.7309319973,"0",1,7,6
10,8,1,0.518715143203735,7.99908804893494,2327.73110508919,"0",0,0,6
10,8,1,0.498363018035889,10.0157980918884,2329.74781489372,"0",2,1,6
10,20,1,0.591156959533691,1.99898219108582,2341.79800200462,"0",1,1,6
10,20,1,0.530833959579468,4.01548600196838,2343.8145070076,"0",2,2,6
10,20,1,0.391171932220459,5.99901819229126,2345.79803800583,"0",1,0,6
10,20,1,0.42874002456665,7.99903202056885,2347.79805207253,"0",1,3,6
10,20,1,0.564945936203003,10.0158121585846,2349.81483197212,"0",2,1,6
10,20,1,0.530992031097412,2.01560592651367,2361.88164687157,"0",2,1,6
10,20,1,0.481529951095581,4.01563286781311,2363.88167309761,"0",2,3,6
10,20,1,0.464520931243896,5.99897599220276,2365.86501693726,"0",1,7,6
10,20,1,0.509791851043701,7.99905896186829,2367.86509895325,"0",0,0,6
10,20,1,0.451699018478394,9.99906992912292,2369.86511087418,"0",0,5,6
10,4,0,0.330642938613892,0.333876848220825,2380.25019788742,"0",1,3,6
10,20,1,0.531922101974487,1.99901103973389,2390.28204488754,"0",1,5,6
10,20,1,0.5967698097229,3.99910616874695,2392.28214097023,"0",0,6,6
10,20,1,0.845508098602295,5.99912405014038,2394.28215909004,"0",1,0,6
10,20,1,0.513966083526611,7.9991409778595,2396.28217601776,"0",1,5,6
10,20,1,0.666628122329712,9.99919319152832,2398.28222799301,"0",1,2,6
10,8,1,0.708432912826538,1.99906206130981,2410.33241510391,"0",1,2,6
10,8,1,0.480855941772461,4.01570820808411,2412.34906101227,"0",2,2,6
10,8,1,0.614114046096802,6.01566100120544,2414.34901404381,"0",2,4,6
10,8,1,0.581007957458496,8.01577401161194,2416.34912705421,"0",2,1,6
10,8,1,0.632068157196045,10.0156722068787,2418.34902596474,"0",2,6,6
10,8,1,0.700006008148193,1.99898791313171,2430.3991830349,"0",0,6,6
10,8,1,0.49683403968811,4.01566100120544,2432.41585588455,"0",2,5,6
10,8,1,0.404585123062134,5.99865198135376,2434.39884710312,"0",1,7,6
10,8,1,0.430675983428955,8.01566100120544,2436.41585493088,"0",2,3,6
10,8,1,0.529688119888306,9.99901294708252,2438.39920806885,"0",1,0,6
10,4,2,1.00009799003601,1.99897599220276,2450.44928789139,"0",1,5,6
10,4,0,3.28442692756653,3.28446102142334,2451.73477196693,"0",0,0,6
10,8,1,0.815316915512085,2.01563000679016,2461.78269505501,"0",2,5,6
10,8,1,0.539310932159424,3.9989538192749,2463.76602005959,"0",1,1,6
10,8,2,1.00007486343384,5.99896788597107,2465.76603388786,"0",1,3,6
10,8,1,0.56483006477356,8.01565289497375,2467.78271889687,"0",2,1,6
10,8,1,0.46488094329834,9.99897694587708,2469.76604199409,"0",0,2,6
10,4,0,0.382220983505249,0.383991003036499,2480.20127797127,"0",2,3,6
10,4,0,0.482441186904907,0.484580993652344,2488.71848797798,"0",2,7,6
10,20,1,0.497255086898804,1.9989869594574,2498.7496099472,"0",1,3,6
10,20,1,0.845297813415527,4.0156238079071,2500.76624703407,"0",2,7,6
10,20,1,0.61794900894165,5.99897885322571,2502.74960207939,"0",1,0,6
10,20,1,0.437772989273071,7.99899792671204,2504.74961996078,"0",0,3,6
10,20,1,0.580082178115845,10.0156908035278,2506.76631402969,"0",2,4,6
10,20,1,0.6718590259552,1.99890184402466,2518.81637501717,"0",0,4,6
10,20,1,0.477150917053223,3.99888300895691,2520.81635594368,"0",1,4,6
10,20,1,0.564643144607544,6.0155930519104,2522.83306598663,"0",2,4,6
10,20,1,0.39761209487915,8.01557803153992,2524.83305096626,"0",2,7,6
10,20,1,0.498422145843506,10.015634059906,2526.83310699463,"0",2,1,6
10,8,1,0.52140212059021,1.99880313873291,2538.88316392899,"0",0,3,6
10,8,1,0.564017057418823,4.01543521881104,2540.89979600906,"0",2,5,6
10,8,1,0.513674020767212,6.01549410820007,2542.89985394478,"0",2,7,6
10,8,1,0.615191221237183,8.01547813415527,2544.89983892441,"0",2,2,6
10,8,2,0.471858024597168,9.99892115592957,2546.88328194618,"0",1,1,6
10,20,1,0.59838604927063,2.0155348777771,2558.9499630928,"0",2,6,6
10,20,1,0.535081148147583,3.99887490272522,2560.93330287933,"0",0,3,6
10,20,1,0.5178542137146,5.9989218711853,2562.93335008621,"0",0,6,6
10,20,1,0.490365982055664,7.99887180328369,2564.93330001831,"0",1,3,6
10,20,1,0.520857095718384,9.99889898300171,2566.93332695961,"0",0,4,6
10,20,1,0.748423099517822,2.01550507545471,2579.00009489059,"0",2,6,6
10,20,1,0.514400005340576,4.01551818847656,2581.00010800362,"0",2,3,6
10,20,1,0.580045938491821,6.0155291557312,2583.00011897087,"0",2,1,6
10,20,1,0.50984001159668,7.99883413314819,2584.98342394829,"0",1,4,6
10,20,1,0.510116100311279,9.99887299537659,2586.98346304893,"0",0,2,6
