"Handling","Reward","Choice","Task.RT","Choice.RT","Experiment.Time","Trial.Outcome","Task.Type","Task.Setup","Block"
10,4,0,0.363149881362915,0.367746829986572,7.42045187950134,"0",1,0,1
10,20,1,0.640079021453857,1.99913811683655,17.4520490169525,"0",1,2,1
10,20,1,0.761338949203491,4.0158429145813,19.4687540531158,"0",2,5,1
10,20,1,0.687831878662109,5.9994580745697,21.4523689746857,"0",0,0,1
10,20,2,0.916282176971436,7.9992458820343,23.4521570205688,"0",0,5,1
10,20,2,0.997112989425659,10.0160980224609,25.4690089225769,"0",2,2,1
10,4,0,1.13313794136047,1.1331799030304,34.6364738941193,"0",2,6,1
10,8,1,0.724530935287476,1.99859094619751,44.6689999103546,"0",0,3,1
10,8,2,1.00009608268738,3.9986310005188,46.6690399646759,"0",0,7,1
10,8,1,0.659148931503296,5.9986469745636,48.6690559387207,"0",1,3,1
10,8,1,0.619268178939819,7.99894285202026,50.6693520545959,"0",1,5,1
10,8,2,0.996630907058716,10.015722990036,52.6861329078674,"0",2,3,1
10,8,1,0.635229110717773,1.99903702735901,62.7194790840149,"0",1,3,1
10,8,1,0.772490978240967,3.998859167099,64.7193009853363,"0",0,0,1
10,8,2,0.996735811233521,6.01570010185242,66.7361419200897,"0",2,5,1
10,8,1,0.563225030899048,7.99937009811401,68.7198131084442,"0",1,7,1
10,8,2,0.996521949768066,10.0155670642853,70.7360088825226,"0",2,2,1
10,20,1,0.973716974258423,1.99939393997192,80.7697329521179,"0",0,7,1
10,20,1,0.770397901535034,3.99891877174377,82.7692580223083,"0",0,1,1
10,20,2,0.997210025787354,6.01585984230042,84.786199092865,"0",2,5,1
10,20,1,0.60875415802002,7.99924898147583,86.7695879936218,"0",1,1,1
10,20,1,0.509774923324585,9.99947500228882,88.7698149681091,"0",1,4,1
10,8,2,0.997462034225464,2.01579284667969,100.852977991104,"0",2,6,1
10,8,1,0.0088350772857666,3.99948692321777,102.836672067642,"0",0,7,1
10,8,1,0.56556510925293,5.99927687644958,104.8364610672,"0",1,1,1
10,8,1,0.540915012359619,7.9993109703064,106.836494922638,"0",1,6,1
10,8,1,0.965395212173462,10.0162630081177,108.853446960449,"0",2,2,1
10,4,2,0.997396945953369,2.01635503768921,120.937068939209,"0",2,6,1
10,4,0,0.808921813964844,2.84998798370361,121.770700931549,"0",0,6,1
10,20,1,0.832204818725586,2.01580190658569,131.820301055908,"0",2,7,1
10,20,1,0.715136051177979,4.0156090259552,133.820107936859,"0",2,3,1
10,20,1,0.519559144973755,5.99925398826599,135.803754091263,"0",0,7,1
10,20,1,0.797681093215942,8.01575493812561,137.820254087448,"0",2,6,1
10,20,1,0.514838933944702,9.99932789802551,139.803827047348,"0",0,1,1
10,20,1,0.721156120300293,1.99952912330627,151.853976964951,"0",1,6,1
10,20,1,0.598428964614868,3.99935102462769,153.853797912598,"0",0,2,1
10,20,1,0.525484800338745,5.99957990646362,155.854027986526,"0",1,4,1
10,20,1,0.631927013397217,8.01637601852417,157.870822906494,"0",2,3,1
10,20,1,0.664841890335083,10.0165009498596,159.870948076248,"0",2,2,1
10,8,1,0.832510948181152,2.01560997962952,171.937059879303,"0",2,1,1
10,8,1,0.58159613609314,4.01619911193848,173.937649965286,"0",2,2,1
10,8,1,0.497560024261475,6.01601505279541,175.937464952469,"0",2,0,1
10,8,1,0.4652099609375,7.99934196472168,177.920790910721,"0",1,4,1
10,8,2,0.998361110687256,9.99957990646362,179.92103099823,"0",2,4,1
10,4,0,0.403496980667114,0.423004865646362,190.393948078156,"0",0,4,1
10,8,1,0.965023040771484,2.01588797569275,200.43802690506,"0",2,6,1
10,8,1,0.906197071075439,3.99922108650208,202.421360015869,"0",0,2,1
10,8,1,0.589679956436157,5.9990348815918,204.421173095703,"0",1,2,1
10,8,1,0.547933101654053,7.99914002418518,206.421278953552,"0",1,0,1
10,8,1,0.466068983078003,9.99892497062683,208.421063899994,"0",1,7,1
10,20,1,0.533408880233765,1.9991660118103,220.471643924713,"0",0,2,1
10,20,1,0.627593994140625,3.99920701980591,222.471684932709,"0",0,1,1
10,20,1,0.483256101608276,5.99922204017639,224.471699953079,"0",1,7,1
10,20,1,0.441923856735229,7.9992949962616,226.471774101257,"0",1,3,1
10,20,1,0.734658002853394,9.99909400939941,228.471571922302,"0",0,5,1
10,8,0,0.729879856109619,0.749299764633179,239.272170066833,"0",0,0,1
10,4,0,0.392108917236328,0.395378112792969,247.701560974121,"0",1,5,1
10,20,1,0.563878059387207,1.99911403656006,257.738893032074,"0",1,4,1
10,20,1,0.497587203979492,3.99909710884094,259.738876104355,"0",0,3,1
10,20,1,0.717779874801636,5.9991672039032,261.738945960999,"0",0,7,1
10,20,1,0.748381853103638,8.01587414741516,263.75565290451,"0",2,2,1
10,20,1,0.510300159454346,9.99923515319824,265.739013910294,"0",1,5,1
10,4,0,0.316225051879883,0.317961931228638,276.107805967331,"0",2,7,1
10,4,0,0.616111040115356,0.618051052093506,284.757622003555,"0",2,3,1
10,8,1,0.544126033782959,1.99925708770752,294.78923201561,"0",0,1,1
10,8,1,0.514133930206299,4.01558804512024,296.805562973022,"0",2,0,1
10,8,1,0.582606077194214,5.99896001815796,298.78893494606,"0",0,7,1
10,8,1,0.51975417137146,7.99918103218079,300.789156913757,"0",0,4,1
10,8,1,0.564997911453247,10.0158729553223,302.805849075317,"0",2,1,1
10,8,0,0.311619997024536,0.316991090774536,313.172477960587,"0",1,6,1
10,20,1,0.499109029769897,2.01564908027649,323.222327947617,"0",2,0,1
10,20,1,0.575435876846313,3.99911212921143,325.205790996552,"0",1,6,1
10,20,1,0.621222972869873,5.9993360042572,327.20601606369,"0",1,7,1
10,20,1,0.466330051422119,7.9993200302124,329.206000089645,"0",0,1,1
10,20,1,0.526928186416626,9.99934792518616,331.206027984619,"0",1,5,1
10,4,0,0.338655948638916,0.343999862670898,341.600678920746,"0",1,6,1
10,20,1,0.615324020385742,1.99903392791748,351.639312982559,"0",0,5,1
10,20,1,0.560742139816284,3.9992368221283,353.639517068863,"0",1,1,1
10,20,1,0.489992141723633,5.99921584129333,355.639497041702,"0",0,4,1
10,20,1,0.609634876251221,7.99864482879639,357.638923883438,"0",0,0,1
10,20,1,0.598244190216064,10.0160038471222,359.656285047531,"0",2,2,1
10,8,0,0.29686713218689,0.316235065460205,370.023175001144,"0",0,1,1
10,8,1,0.599966049194336,1.99851489067078,380.055754899979,"0",0,7,1
10,8,1,0.459355115890503,3.99912691116333,382.056367874146,"0",1,7,1
10,8,1,0.54823899269104,6.01548099517822,384.072721004486,"0",2,0,1
10,8,1,0.508226156234741,7.99912881851196,386.056369066238,"0",1,7,1
10,8,1,0.614871978759766,10.0157129764557,388.072953939438,"0",2,1,1
10,20,1,0.573638916015625,1.99877405166626,400.123106956482,"0",0,4,1
10,20,1,0.46489405632019,4.01542711257935,402.139761924744,"0",2,1,1
10,20,1,0.497637987136841,6.01524305343628,404.139575958252,"0",2,2,1
10,20,1,0.484330177307129,7.9987940788269,406.123127937317,"0",0,2,1
10,20,1,0.529497146606445,9.99874806404114,408.123080968857,"0",0,3,1
10,20,1,0.595417976379395,1.99950313568115,420.173239946365,"0",0,7,1
10,20,1,0.612068891525269,3.99956297874451,422.173300027847,"0",0,4,1
10,20,1,0.542781114578247,5.99948310852051,424.173221111298,"0",1,1,1
10,20,1,0.473523855209351,7.99949097633362,426.173229932785,"0",0,2,1
10,20,1,0.948415994644165,10.0159142017365,428.189650058746,"0",2,3,1
2,4,1,0.694708824157715,1.99903607368469,446.806674957275,"0",1,5,2
2,8,1,0.714807987213135,2.01580500602722,466.873472929001,"0",2,0,2
2,20,1,0.535550117492676,1.99919509887695,486.923311948776,"0",1,3,2
2,8,1,0.715311050415039,2.01591515541077,506.990314006805,"0",2,0,2
2,4,1,0.53919792175293,1.99917697906494,527.040436983109,"0",1,7,2
2,20,1,0.592483043670654,1.99919104576111,547.090672969818,"0",0,7,2
2,20,1,0.688256978988647,1.99959182739258,567.140717983246,"0",1,3,2
2,20,1,0.732367038726807,2.01603007316589,587.207617998123,"0",2,1,2
2,8,1,0.648798942565918,2.0161349773407,607.274743080139,"0",2,5,2
2,8,1,0.528475999832153,1.99919581413269,627.324548006058,"0",1,5,2
2,4,2,0.997164011001587,2.01564383506775,647.391123056412,"0",2,7,2
2,4,1,0.608251094818115,1.99912810325623,665.424634933472,"0",1,6,2
2,20,1,0.536963939666748,1.99924087524414,685.475038051605,"0",1,1,2
2,20,1,0.60421895980835,1.99917793273926,705.525283098221,"0",0,7,2
2,8,1,0.652971982955933,1.99902582168579,725.575402975082,"0",0,3,2
2,8,1,0.488976001739502,1.99925398826599,745.625647068024,"0",1,7,2
2,4,0,0.295047998428345,0.318656921386719,763.995060920715,"0",0,7,2
2,4,0,0.30220103263855,0.306628942489624,780.333303928375,"0",1,4,2
2,20,1,0.44763708114624,1.99924087524414,798.359524011612,"0",0,3,2
2,20,1,0.663059949874878,1.99859309196472,818.409106969833,"0",0,4,2
2,8,1,0.815536022186279,2.01590299606323,838.476696014404,"0",2,7,2
2,4,0,0.269967079162598,0.272815942764282,856.800415039062,"0",1,3,2
14,20,1,0.963673114776611,2.01571106910706,881.177351951599,"0",2,5,3
14,20,1,0.565466165542603,3.99891710281372,883.16055893898,"0",1,2,3
14,20,1,0.476008176803589,5.99877095222473,885.160412073135,"0",0,1,3
14,20,2,0.995409965515137,8.01542806625366,887.177067995071,"0",2,6,3
14,20,1,0.524725198745728,9.99902892112732,889.160670042038,"0",0,6,3
14,20,1,0.478034019470215,11.9991021156311,891.160742998123,"0",1,0,3
14,20,1,0.423784971237183,13.9991230964661,893.160763978958,"0",1,3,3
14,20,1,0.664902925491333,2.01588702201843,901.227504014969,"0",2,6,3
14,20,1,0.448606967926025,3.99912691116333,903.210745096207,"0",1,7,3
14,20,2,0.995848894119263,6.0158588886261,905.227475881577,"0",2,6,3
14,20,1,0.524810075759888,7.9989869594574,907.210603952408,"0",0,2,3
14,20,2,0.996935844421387,10.0157668590546,909.227382898331,"0",2,5,3
14,8,2,0.997300148010254,2.01566195487976,915.277343034744,"0",2,5,3
14,8,1,0.51758885383606,3.9993269443512,917.261008024216,"0",1,0,3
14,8,1,0.452366828918457,5.99936604499817,919.261048078537,"0",0,6,3
14,8,2,0.996605157852173,8.01606106758118,921.277741909027,"0",2,7,3
14,4,0,0.349384069442749,0.351109981536865,925.662941932678,"0",2,0,3
14,4,0,0.301591157913208,0.305162906646729,930.000679969788,"0",1,5,3
14,8,0,0.763321876525879,0.766187906265259,934.794992923737,"0",1,0,3
14,8,0,0.414793968200684,0.4166419506073,939.245474100113,"0",2,6,3
14,20,1,0.564121961593628,1.99886202812195,945.277822971344,"0",1,7,3
14,20,1,0.467391967773438,3.9989058971405,947.277868032455,"0",1,0,3
14,20,1,0.421154975891113,5.99891304969788,949.277875900269,"0",0,7,3
14,20,1,0.548927068710327,7.99928212165833,951.27824306488,"0",0,7,3
14,20,1,0.814774036407471,10.0158579349518,953.294821023941,"0",2,0,3
14,20,1,0.981170892715454,12.0158519744873,955.294815063477,"0",2,1,3
14,20,1,0.76340389251709,13.9993779659271,957.278340101242,"0",1,3,3
14,4,0,1.66726279258728,1.66730380058289,964.996334075928,"0",1,0,3
14,4,0,0.381587982177734,0.384031057357788,969.413316011429,"0",2,1,3
14,8,0,0.426640033721924,0.431068897247314,973.876221895218,"0",1,4,3
14,20,1,0.594628095626831,1.99902701377869,979.911967992783,"0",0,4,3
14,20,1,0.436187028884888,3.99873685836792,981.91167807579,"0",1,3,3
14,20,2,0.996303081512451,6.01569390296936,983.92863702774,"0",2,7,3
14,20,1,0.551882028579712,7.9990348815918,985.911976099014,"0",1,0,3
14,20,1,0.766501188278198,9.99904203414917,987.911983013153,"0",1,6,3
14,20,1,0.447921991348267,11.9990088939667,989.911951065063,"0",0,4,3
14,20,2,0.996824026107788,14.015781879425,991.928724050522,"0",2,4,3
14,8,0,0.365324974060059,0.367177963256836,996.330132007599,"0",2,7,3
14,20,1,0.49166202545166,1.99923706054688,1002.36204409599,"0",1,0,3
14,20,1,0.826501846313477,3.99922108650208,1004.36202788353,"0",1,4,3
14,20,2,0.997009038925171,6.01594209671021,1006.37874889374,"0",2,5,3
14,20,1,0.758880853652954,7.99932718276978,1008.3621339798,"0",1,0,3
14,20,1,0.540399074554443,9.99928402900696,1010.36209106445,"0",1,6,3
14,20,1,0.634359121322632,11.9989562034607,1012.36176300049,"0",0,0,3
14,20,1,0.57032299041748,13.9991290569305,1014.36193609238,"0",1,3,3
14,4,0,0.299340009689331,0.301099061965942,1020.71420693398,"0",2,7,3
14,8,0,0.92274808883667,0.942456007003784,1025.68918991089,"0",0,1,3
14,20,1,0.481986045837402,1.99935102462769,1031.72907090187,"0",0,1,3
14,20,1,0.620206117630005,3.99964594841003,1033.72936701775,"0",1,1,3
14,20,1,0.553843975067139,5.99968791007996,1035.72940897942,"0",0,1,3
14,20,1,0.746845006942749,8.01576209068298,1037.74548101425,"0",2,2,3
14,20,1,0.535639047622681,9.99971699714661,1039.72943806648,"0",1,1,3
14,20,2,0.996544122695923,12.0164189338684,1041.74613904953,"0",2,7,3
14,20,1,0.61742115020752,13.9998159408569,1043.72953605652,"0",1,0,3
14,4,0,0.316042900085449,0.32200288772583,1050.10236787796,"0",1,6,3
14,20,1,0.471009969711304,1.99955487251282,1056.12973403931,"0",0,3,3
14,20,2,0.674591064453125,3.99954199790955,1058.12972092628,"0",1,4,3
14,20,2,0.996502876281738,6.01628088951111,1060.1464600563,"0",2,6,3
14,20,1,0.607105016708374,1.99923181533813,1066.17953205109,"0",1,6,3
14,20,1,0.5503830909729,3.99907279014587,1068.17937302589,"0",0,5,3
14,20,1,0.645157098770142,5.99965786933899,1070.17995905876,"0",0,0,3
14,20,1,0.903443813323975,7.99968194961548,1072.17998194695,"0",1,4,3
14,20,1,0.777659893035889,9.99969291687012,1074.17999410629,"0",0,1,3
14,20,2,0.996724128723145,12.016313791275,1076.1966149807,"0",2,1,3
14,20,2,0.0132040977478027,14.0162069797516,1078.19650697708,"0",2,4,3
14,4,2,1.00005602836609,1.99925208091736,1084.23021292686,"0",0,3,3
14,4,0,0.523046016693115,2.53042697906494,1084.76138710976,"0",1,7,3
14,8,0,0.315932989120483,0.31766414642334,1089.11542701721,"0",2,3,3
14,4,0,0.540621995925903,0.560266017913818,1093.70791292191,"0",0,0,3
14,8,0,0.38423490524292,0.403722047805786,1098.15126204491,"0",0,7,3
14,8,0,0.649357080459595,0.651086091995239,1102.83232092857,"0",2,5,3
14,20,1,0.697252988815308,1.99892210960388,1108.86326599121,"0",0,4,3
14,20,1,0.520473003387451,3.99950695037842,1110.8638510704,"0",1,2,3
14,20,1,0.466322898864746,5.99962997436523,1112.86397409439,"0",1,2,3
14,20,1,0.489446878433228,7.9993269443512,1114.86367106438,"0",0,6,3
14,20,1,0.931742906570435,10.0162980556488,1116.88064193726,"0",2,0,3
14,20,2,0.996606111526489,12.0163969993591,1118.88074207306,"0",2,5,3
14,20,1,0.548968076705933,13.9992699623108,1120.86361289024,"0",1,5,3
14,4,0,0.297576189041138,0.299316883087158,1127.21398091316,"0",2,7,3
14,20,1,0.598475933074951,2.01579809188843,1133.26407289505,"0",2,0,3
14,20,2,0.996791839599609,4.01615810394287,1135.2644329071,"0",2,7,3
14,20,1,0.6809241771698,6.01612305641174,1137.26439905167,"0",2,0,3
14,20,1,0.550337076187134,7.99942207336426,1139.24769806862,"0",1,5,3
14,20,1,0.584808111190796,9.99945211410522,1141.24772691727,"0",1,1,3
14,20,1,0.680763006210327,12.0159780979156,1143.26425290108,"0",2,3,3
14,20,1,0.536991834640503,13.9996101856232,1145.24788498878,"0",1,0,3
14,4,0,0.320523977279663,0.324477195739746,1151.62324905396,"0",1,3,3
14,8,0,0.599029064178467,0.600755929946899,1156.24970293045,"0",2,0,3
14,20,1,0.544595956802368,1.99943113327026,1162.28151988983,"0",1,3,3
14,20,1,0.84720516204834,4.01606702804565,1164.29815506935,"0",2,5,3
14,20,1,0.585494995117188,5.99914908409119,1166.28123688698,"0",0,0,3
14,20,1,0.439058780670166,7.99940705299377,1168.2814950943,"0",0,3,3
14,20,1,0.451323986053467,9.99951910972595,1170.28160810471,"0",1,3,3
14,20,2,0.996664047241211,12.016205072403,1172.29829287529,"0",2,6,3
14,20,1,0.468672037124634,13.9993431568146,1174.2814309597,"0",1,2,3
14,8,0,0.468412160873413,0.488026857376099,1180.82052707672,"0",0,3,3
14,8,0,2.00097918510437,2.00102114677429,1186.85022902489,"0",1,1,3
14,20,1,0.580214977264404,2.01557803153992,1192.89839410782,"0",2,0,3
14,20,1,0.781507968902588,4.01559400558472,1194.89841008186,"0",2,4,3
14,20,2,0.996925115585327,6.01597499847412,1196.89879107475,"0",2,6,3
14,20,1,0.0123870372772217,8.01589012145996,1198.89870595932,"0",2,7,3
14,20,1,0.00751709938049316,9.99929308891296,1200.88210892677,"0",0,3,3
14,20,1,0.439723968505859,11.9993331432343,1202.88214993477,"0",1,5,3
14,20,1,0.444287061691284,13.999370098114,1204.88218688965,"0",1,3,3
14,4,0,0.265523910522461,0.267408847808838,1211.2003390789,"0",2,1,3
14,4,0,0.29855489730835,0.300409078598022,1215.53382205963,"0",2,3,3
14,4,0,0.304218053817749,0.309909820556641,1219.87658691406,"0",1,7,3
14,4,0,0.257117033004761,0.276505947113037,1224.19291090965,"0",0,6,3
14,8,0,0.267791032791138,0.273175001144409,1228.50611710548,"0",1,7,3
14,20,1,0.848912000656128,2.0158839225769,1234.54905509949,"0",2,2,3
14,20,2,0.996980905532837,4.01617193222046,1236.54934406281,"0",2,3,3
14,20,1,0.537437200546265,5.9996600151062,1238.5328309536,"0",1,2,3
14,20,1,0.814702987670898,8.01634693145752,1240.54951810837,"0",2,7,3
14,20,1,0.500372886657715,9.99977493286133,1242.53294610977,"0",1,5,3
14,20,1,0.567275047302246,11.9991700649261,1244.53234100342,"0",0,5,3
14,20,1,0.633645057678223,13.9997799396515,1246.53295087814,"0",1,5,3
14,20,1,0.948559045791626,2.01590895652771,1254.59973907471,"0",2,6,3
14,20,1,0.528947114944458,3.99904108047485,1256.58287096024,"0",1,4,3
14,20,2,0.997207880020142,6.01596713066101,1258.59979701042,"0",2,5,3
14,20,1,0.0124258995056152,8.01601409912109,1260.59984493256,"0",2,4,3
14,20,1,0.410895109176636,9.99936699867249,1262.58319807053,"0",0,3,3
14,20,1,0.489804029464722,11.9994471073151,1264.58327794075,"0",1,3,3
14,20,1,0.418291091918945,13.9988830089569,1266.58271288872,"0",0,3,3
14,8,0,1.90015292167664,1.90019392967224,1274.53448200226,"0",2,6,3
14,8,0,0.431182146072388,0.435585021972656,1279.00330710411,"0",1,1,3
14,20,1,0.493520975112915,1.99930691719055,1285.0337100029,"0",0,3,3
14,20,1,0.522465944290161,3.99937200546265,1287.03377389908,"0",1,6,3
14,20,1,0.864802837371826,6.01555204391479,1289.04995298386,"0",2,7,3
14,20,1,0.598169088363647,8.01586294174194,1291.05026602745,"0",2,3,3
14,20,1,0.466038942337036,9.99948596954346,1293.03388810158,"0",0,3,3
14,20,1,0.648246049880981,12.0160419940948,1295.0504450798,"0",2,1,3
14,20,1,0.496901035308838,13.9995141029358,1297.03391599655,"0",0,0,3
10,8,1,0.848536014556885,2.01623606681824,1313.86728596687,"0",2,0,4
10,8,1,0.480821132659912,4.01630711555481,1315.86735701561,"0",2,2,4
10,8,1,0.501031875610352,5.99987006187439,1317.85091996193,"0",0,2,4
10,8,1,0.442710876464844,7.99962306022644,1319.85067296028,"0",0,6,4
10,8,1,0.498242855072021,10.0165889263153,1321.86764097214,"0",2,3,4
10,20,1,0.504574060440063,1.99907398223877,1333.91768503189,"0",0,3,4
10,20,1,0.441179990768433,3.99932408332825,1335.91793608665,"0",1,5,4
10,20,1,0.493067026138306,5.99932599067688,1337.91793704033,"0",0,4,4
10,20,1,0.465558052062988,7.99918413162231,1339.91779494286,"0",1,3,4
10,20,1,0.486377000808716,9.99887013435364,1341.91748094559,"0",0,7,4
10,4,0,0.399622917175293,0.401367902755737,1352.37025308609,"0",2,1,4
10,20,1,0.6303870677948,1.99901700019836,1362.40149998665,"0",0,0,4
10,20,1,0.392550945281982,3.99921298027039,1364.40169596672,"0",1,5,4
10,20,2,0.408745050430298,5.99919700622559,1366.40168094635,"0",1,0,4
10,20,1,0.444908857345581,7.99920296669006,1368.40168595314,"0",1,4,4
10,20,1,0.466660022735596,9.99898791313171,1370.40147089958,"0",1,3,4
10,4,0,1.48510885238647,1.48514986038208,1381.93673610687,"0",0,5,4
10,8,0,0.484701156616211,0.504593133926392,1390.47364902496,"0",0,4,4
10,8,1,0.915289163589478,2.01532506942749,1400.51774191856,"0",2,6,4
10,8,1,0.481358051300049,3.9989230632782,1402.50133991241,"0",1,0,4
10,8,1,0.467560052871704,5.99906206130981,1404.50148010254,"0",0,4,4
10,8,1,0.430186033248901,7.99908995628357,1406.50150704384,"0",0,7,4
10,8,1,0.435869932174683,9.99910712242126,1408.50152492523,"0",1,0,4
10,4,0,0.294615030288696,0.298019170761108,1418.85039901733,"0",1,2,4
10,20,1,0.932078123092651,2.01560091972351,1428.90125989914,"0",2,5,4
10,20,1,0.477097034454346,3.99913191795349,1430.88479208946,"0",1,1,4
10,20,1,0.515486001968384,5.99892282485962,1432.88458204269,"0",1,2,4
10,20,1,0.615532875061035,8.01559090614319,1434.90124988556,"0",2,4,4
10,20,1,0.481253147125244,10.015597820282,1436.90125799179,"0",2,1,4
10,4,0,0.323590993881226,0.34326696395874,1447.29553389549,"0",0,5,4
10,8,0,0.311345100402832,0.331269979476929,1455.66664290428,"0",0,4,4
10,20,1,0.864847898483276,2.01555991172791,1465.71785092354,"0",2,6,4
10,20,2,0.996827125549316,4.01578378677368,1467.718075037,"0",2,7,4
10,20,1,0.432986974716187,5.99906182289124,1469.70135402679,"0",0,2,4
10,20,1,0.425651073455811,7.99849200248718,1471.7007830143,"0",0,0,4
10,20,1,0.681208848953247,10.0155308246613,1473.71782207489,"0",2,3,4
10,20,1,0.491898059844971,1.99940800666809,1485.76810598373,"0",0,7,4
10,20,1,0.679565906524658,4.01601600646973,1487.78471493721,"0",2,5,4
10,20,1,0.631525993347168,6.01598787307739,1489.78468704224,"0",2,0,4
10,20,1,0.564215183258057,7.99931287765503,1491.76801204681,"0",1,4,4
10,20,1,0.504616022109985,9.99931597709656,1493.76801490784,"0",1,5,4
10,8,1,0.579476118087769,1.99927997589111,1505.8180270195,"0",0,5,4
10,8,1,0.387200832366943,3.99929809570312,1507.81804394722,"0",1,7,4
10,8,1,0.463413953781128,5.99930906295776,1509.81805610657,"0",0,4,4
10,8,1,0.514839887619019,8.01570916175842,1511.83445501328,"0",2,3,4
10,8,1,0.464171171188354,9.99935007095337,1513.81809592247,"0",1,1,4
10,8,0,0.299837827682495,0.301608085632324,1524.17007803917,"0",2,7,4
10,4,0,0.252254962921143,0.271733045578003,1532.47382497787,"0",0,0,4
10,20,1,0.469707012176514,1.99936103820801,1542.50131607056,"0",0,1,4
10,20,1,0.643739938735962,3.99937200546265,1544.50132799149,"0",1,4,4
10,20,2,0.390380859375,5.99913811683655,1546.50109291077,"0",1,6,4
10,20,1,0.581099987030029,7.99916410446167,1548.50111889839,"0",1,1,4
10,20,1,0.408383131027222,9.9993941783905,1550.50134992599,"0",0,3,4
10,4,0,0.531943082809448,0.533795833587646,1561.08639192581,"0",2,0,4
10,8,0,0.388251066207886,0.391125917434692,1569.5096321106,"0",1,3,4
10,8,0,0.457652807235718,0.476968050003052,1578.01256799698,"0",0,7,4
10,20,1,0.430194854736328,1.99973082542419,1588.05133199692,"0",0,7,4
10,20,1,0.364437103271484,3.99977803230286,1590.0513780117,"0",0,7,4
10,20,2,0.416759967803955,5.99981880187988,1592.05141997337,"0",1,5,4
10,20,1,0.417922973632812,7.99975395202637,1594.05135393143,"0",1,4,4
10,20,1,0.662436962127686,10.0165159702301,1596.06811499596,"0",2,3,4
10,4,0,0.364110946655273,0.365848064422607,1606.48466992378,"0",2,4,4
10,4,0,0.503935813903809,0.508216857910156,1615.02705192566,"0",1,5,4
10,20,1,0.505354881286621,1.99940085411072,1625.06793808937,"0",0,2,4
10,20,1,0.764919996261597,4.01593589782715,1627.08447408676,"0",2,4,4
10,20,1,0.581929922103882,5.99890089035034,1629.06743907928,"0",1,0,4
10,20,1,0.447999954223633,7.99900889396667,1631.06754589081,"0",1,0,4
10,20,1,0.480399131774902,9.99869084358215,1633.06722807884,"0",0,6,4
10,20,1,0.516519069671631,1.9990918636322,1645.11773204803,"0",0,3,4
10,20,1,0.469732999801636,3.99906182289124,1647.11770200729,"0",0,3,4
10,20,1,0.714940071105957,6.0156888961792,1649.13432788849,"0",2,6,4
10,20,1,0.475286960601807,7.999018907547,1651.11765909195,"0",1,2,4
10,20,1,0.614394187927246,10.015429019928,1653.13406801224,"0",2,0,4
10,20,1,0.623518943786621,1.99914598464966,1665.18422794342,"0",1,0,4
10,20,1,0.530737161636353,4.0152599811554,1667.20034098625,"0",2,1,4
10,20,1,0.665300846099854,6.01581287384033,1669.2008960247,"0",2,0,4
10,20,1,0.415946960449219,7.99905705451965,1671.18413901329,"0",0,3,4
10,20,1,0.562231063842773,9.99887204170227,1673.18395400047,"0",0,0,4
10,4,0,1.09904813766479,1.09909105300903,1684.33384394646,"0",0,7,4
10,4,0,0.417691946029663,0.423052072525024,1692.79138994217,"0",1,6,4
10,8,0,0.315850019454956,0.317579030990601,1701.13579106331,"0",2,5,4
10,8,1,0.552227973937988,1.99882507324219,1711.1671628952,"0",0,1,4
10,8,1,0.453293085098267,3.99869108200073,1713.16702890396,"0",0,4,4
10,8,2,0.434476852416992,5.99888706207275,1715.16722488403,"0",1,1,4
10,8,1,0.48285698890686,7.99889612197876,1717.16723489761,"0",1,3,4
10,8,1,0.548299074172974,10.0155329704285,1719.18387198448,"0",2,3,4
2,20,1,0.540737152099609,1.99908185005188,1737.48376703262,"0",1,1,5
2,8,1,0.499356031417847,2.01637506484985,1757.55005598068,"0",2,5,5
2,8,1,0.466871023178101,1.99909400939941,1777.60026288033,"0",0,6,5
2,4,1,0.49956202507019,1.99895000457764,1797.64993810654,"0",1,4,5
2,20,1,0.530344009399414,1.99896383285522,1817.69979906082,"0",1,4,5
2,4,1,0.677335023880005,1.99904608726501,1837.74984693527,"0",0,5,5
2,4,1,0.931826114654541,2.01550889015198,1857.81639409065,"0",2,6,5
2,8,1,0.679244041442871,1.99915719032288,1877.86635899544,"0",1,1,5
2,20,1,0.695307970046997,1.9991569519043,1897.91660308838,"0",1,7,5
2,20,1,0.607228994369507,1.99917483329773,1917.96653604507,"0",0,4,5
2,8,1,0.704162836074829,1.99919199943542,1938.01635289192,"0",1,1,5
2,4,1,0.754879951477051,1.99884796142578,1958.0659558773,"0",0,0,5
2,20,1,0.483925819396973,1.99890899658203,1978.1161570549,"0",1,5,5
2,8,1,0.484559059143066,1.9989001750946,1998.16602897644,"0",1,5,5
2,4,1,0.7641282081604,1.99913811683655,2018.21601295471,"0",1,0,5
2,20,1,0.428183078765869,1.99923896789551,2038.26571202278,"0",0,4,5
2,8,1,0.532599925994873,2.00067400932312,2058.31578707695,"0",0,3,5
2,4,1,0.628182172775269,1.99923086166382,2078.36560606956,"0",0,5,5
2,20,2,0.996971130371094,2.01558709144592,2098.43183898926,"0",2,3,5
2,8,1,0.524093151092529,1.99863290786743,2116.46479010582,"0",0,3,5
2,4,2,0.997014045715332,2.01606202125549,2136.53192996979,"0",2,5,5
14,4,0,0.309564828872681,0.312417030334473,2159.02819800377,"0",1,0,6
14,20,1,0.450160026550293,1.99913311004639,2165.06489491463,"0",1,4,6
14,20,2,0.996783971786499,4.01567602157593,2167.0814371109,"0",2,7,6
14,20,1,0.400381088256836,5.99926900863647,2169.06503009796,"0",0,2,6
14,20,1,0.468669176101685,7.99928402900696,2171.06504607201,"0",1,1,6
14,20,1,0.614979028701782,10.0156991481781,2173.08145999908,"0",2,7,6
14,20,1,0.548152923583984,12.0160369873047,2175.08179807663,"0",2,0,6
14,20,1,0.442824840545654,13.9993150234222,2177.06507587433,"0",1,1,6
14,8,0,0.367208003997803,0.370080947875977,2183.48560595512,"0",1,3,6
14,20,2,0.698939085006714,2.01567983627319,2189.53144407272,"0",2,6,6
14,20,1,0.486037015914917,3.99917984008789,2191.51494407654,"0",0,6,6
14,20,1,0.780769824981689,6.01597094535828,2193.53173494339,"0",2,5,6
14,20,1,0.413088798522949,7.99858999252319,2195.51435399055,"0",1,3,6
14,20,2,0.997217178344727,10.015604019165,2197.5313680172,"0",2,4,6
14,4,0,0.315979957580566,0.336811065673828,2201.90260601044,"0",0,1,6
14,8,0,0.248382091522217,0.269649028778076,2206.20200395584,"0",0,0,6
14,8,0,0.259989023208618,0.279398202896118,2210.51177406311,"0",0,2,6
14,20,1,0.664941787719727,2.01554393768311,2216.56466603279,"0",2,4,6
14,20,1,0.44232702255249,3.99884414672852,2218.54796504974,"0",0,1,6
14,20,1,0.648787021636963,6.01548910140991,2220.5646109581,"0",2,0,6
14,20,2,0.463584899902344,7.99905109405518,2222.54817295074,"0",0,5,6
14,20,1,0.564234018325806,10.0155820846558,2224.56470394135,"0",2,7,6
14,20,1,0.510087013244629,11.9990930557251,2226.54821491241,"0",0,2,6
14,20,1,0.498422861099243,13.9990570545197,2228.54817891121,"0",0,1,6
14,4,0,0.348595857620239,0.350457191467285,2234.94933605194,"0",2,7,6
14,4,0,0.226762056350708,0.23213005065918,2239.21463894844,"0",1,6,6
14,20,1,0.481981039047241,2.01579403877258,2245.26451802254,"0",2,0,6
14,20,1,0.528456926345825,3.99935507774353,2247.24808096886,"0",0,7,6
14,20,1,0.495773077011108,5.99878001213074,2249.24750494957,"0",0,5,6
14,20,1,0.425058841705322,7.99906301498413,2251.24778699875,"0",1,5,6
14,20,1,0.493659019470215,9.9993588924408,2253.24808502197,"0",1,2,6
14,20,1,0.621742963790894,11.9994120597839,2255.24813604355,"0",1,4,6
14,20,2,0.996448040008545,14.0157759189606,2257.26450109482,"0",2,5,6
14,8,0,0.303067922592163,0.305925846099854,2263.62152791023,"0",1,3,6
14,4,0,0.299409151077271,0.301147937774658,2267.95009899139,"0",2,1,6
14,20,1,0.728517055511475,1.99956011772156,2273.98144292831,"0",0,5,6
14,20,1,0.545624971389771,3.99921917915344,2275.98110198975,"0",1,6,6
14,20,1,0.48940896987915,5.99947619438171,2277.98135900497,"0",0,1,6
14,20,1,0.697115898132324,8.01612615585327,2279.99800992012,"0",2,3,6
14,20,1,0.86461615562439,10.016144990921,2281.99802899361,"0",2,7,6
14,20,2,0.996710062026978,12.0159029960632,2283.99778604507,"0",2,6,6
14,20,1,0.668175220489502,13.9994690418243,2285.98135209084,"0",0,6,6
14,8,0,0.299347877502441,0.301084041595459,2292.33311200142,"0",2,2,6
14,20,1,0.490128040313721,1.99922180175781,2298.36438202858,"0",0,1,6
14,20,1,0.443413972854614,3.99950385093689,2300.36466503143,"0",1,3,6
14,20,1,0.431469917297363,6.0161349773407,2302.38129496574,"0",2,1,6
14,20,1,0.426848173141479,7.99930191040039,2304.36446094513,"0",1,4,6
14,20,1,0.964539051055908,10.0161228179932,2306.38128304482,"0",2,6,6
14,20,1,0.630827188491821,12.0159108638763,2308.38106989861,"0",2,0,6
14,20,1,0.419963121414185,13.999233007431,2310.36439299583,"0",0,1,6
14,8,0,0.265937089920044,0.267902851104736,2316.68290710449,"0",2,1,6
14,4,0,0.276655912399292,0.300873041152954,2321.01581096649,"0",0,4,6
14,8,0,0.29823899269104,0.299998998641968,2325.34815597534,"0",2,0,6
14,20,2,0.997241973876953,2.0156238079071,2331.39769506454,"0",2,5,6
14,20,1,0.488730192184448,3.99905180931091,2333.38112306595,"0",1,0,6
14,20,1,0.431982040405273,5.99860692024231,2335.38067793846,"0",0,6,6
14,20,1,0.548105001449585,8.01587986946106,2337.39795207977,"0",2,1,6
14,20,1,0.474169015884399,9.99921178817749,2339.38128399849,"0",0,2,6
14,20,1,0.392280101776123,11.9983289241791,2341.3803999424,"0",1,3,6
14,20,1,0.630156993865967,13.9986939430237,2343.38076496124,"0",0,1,6
14,8,0,0.365808010101318,0.367658138275146,2349.79969000816,"0",2,6,6
14,4,0,0.314686059951782,0.317288875579834,2354.14930891991,"0",2,1,6
14,4,0,0.299438953399658,0.301182985305786,2358.48327803612,"0",2,0,6
14,20,1,0.491490840911865,1.99933004379272,2364.51458787918,"0",1,2,6
14,20,1,0.775710105895996,3.99938797950745,2366.51464509964,"0",0,0,6
14,20,1,0.508675098419189,5.99932098388672,2368.51457905769,"0",0,7,6
14,20,1,0.433294057846069,7.99931311607361,2370.51456999779,"0",0,4,6
14,20,1,0.390855073928833,9.99913191795349,2372.51438903809,"0",0,4,6
14,20,1,0.408694982528687,11.9993529319763,2374.51461100578,"0",1,5,6
14,20,1,0.348362922668457,13.9993181228638,2376.51457500458,"0",0,2,6
14,8,0,0.332895040512085,0.352186918258667,2382.91746211052,"0",0,0,6
14,4,0,0.299299001693726,0.30102801322937,2387.24946904182,"0",2,5,6
14,20,1,0.78184700012207,2.01594710350037,2393.29799294472,"0",2,3,6
14,20,2,0.99645209312439,4.01566004753113,2395.29770493507,"0",2,7,6
14,20,1,0.469157218933105,5.99911999702454,2397.28116703033,"0",1,1,6
14,20,1,0.434355020523071,7.9989800453186,2399.28102588654,"0",1,4,6
14,20,1,0.452553987503052,9.99897313117981,2401.2810189724,"0",0,7,6
14,20,1,0.490393161773682,11.9989721775055,2403.2810189724,"0",1,2,6
14,20,1,0.536530017852783,13.9989800453186,2405.28102588654,"0",1,1,6
14,4,0,0.60853385925293,0.611815929412842,2411.94359207153,"0",1,5,6
14,8,0,0.231233835220337,0.236634016036987,2416.21871805191,"0",1,7,6
14,20,1,0.631076097488403,2.01598000526428,2422.264731884,"0",2,7,6
14,20,2,0.830533027648926,4.01564598083496,2424.26439809799,"0",2,4,6
14,20,1,0.680989027023315,6.01561498641968,2426.26436710358,"0",2,0,6
14,20,1,0.429267168045044,7.99921798706055,2428.24797010422,"0",0,2,6
14,20,1,0.497022151947021,10.0156519412994,2430.26440405846,"0",2,1,6
14,20,1,0.481476068496704,12.015988111496,2432.26473903656,"0",2,4,6
14,20,1,0.489529132843018,13.9986929893494,2434.24744606018,"0",1,7,6
14,20,1,0.720298051834106,1.99811100959778,2442.29686808586,"0",1,5,6
14,20,2,0.997858047485352,4.01596808433533,2444.31472587585,"0",2,4,6
14,20,1,0.482640981674194,5.99930906295776,2446.2980659008,"0",1,7,6
14,20,1,0.44848895072937,7.9992151260376,2448.29797196388,"0",0,6,6
14,20,1,0.560554981231689,9.99903512001038,2450.29779195786,"0",0,0,6
14,20,1,0.400419950485229,11.9992430210114,2452.29800105095,"0",1,4,6
14,20,1,0.581667900085449,14.0157260894775,2454.31448292732,"0",2,2,6
14,8,0,0.203767061233521,0.208216905593872,2460.57363796234,"0",1,4,6
14,8,0,0.521175861358643,0.540751934051514,2465.15650296211,"0",0,0,6
14,4,0,0.332785129547119,0.334524869918823,2469.51669192314,"0",2,1,6
14,4,0,0.348299980163574,0.350043058395386,2473.89891505241,"0",2,1,6
14,20,1,0.494564056396484,1.99951004981995,2479.93137192726,"0",0,5,6
14,20,1,0.440968990325928,3.99952793121338,2481.93139100075,"0",0,2,6
14,20,1,0.394272089004517,5.99951004981995,2483.93137288094,"0",0,0,6
14,20,1,0.648221969604492,8.01596593856812,2485.94782805443,"0",2,2,6
14,20,1,0.698147058486938,10.0161530971527,2487.94801592827,"0",2,2,6
14,20,1,0.730894088745117,12.0162091255188,2489.94807195663,"0",2,5,6
14,20,1,0.514713048934937,14.0161991119385,2491.94806194305,"0",2,0,6
14,20,1,0.613681793212891,2.01563692092896,2500.01458907127,"0",2,2,6
14,20,1,0.442126989364624,3.99923491477966,2501.99818706512,"0",1,7,6
14,20,2,0.996465921401978,6.01582789421082,2504.01478099823,"0",2,7,6
14,20,1,0.448266983032227,8.01592588424683,2506.01487803459,"0",2,3,6
14,20,1,0.461266040802002,9.99919199943542,2507.99814510345,"0",0,0,6
14,20,1,0.463835000991821,12.0158519744873,2510.01480388641,"0",2,1,6
14,20,1,0.468186855316162,13.9985229969025,2511.99747490883,"0",1,4,6
14,8,0,0.312647104263306,0.315937995910645,2518.36494088173,"0",1,5,6
14,4,0,0.282942056655884,0.284808874130249,2522.6831009388,"0",2,2,6
14,20,1,0.496263980865479,1.99919104576111,2528.71483588219,"0",0,6,6
14,20,1,0.831678867340088,4.0158839225769,2530.73152899742,"0",2,7,6
14,20,1,0.530580043792725,5.9991979598999,2532.71484303474,"0",1,6,6
14,20,1,0.447295188903809,7.99897003173828,2534.71461391449,"0",1,4,6
14,20,2,0.530375957489014,10.0159931182861,2536.73163700104,"0",2,6,6
14,20,1,0.511328935623169,11.9990150928497,2538.7146589756,"0",0,0,6
14,20,1,0.620674133300781,13.9992580413818,2540.71490192413,"0",1,5,6
14,4,0,0.313662052154541,0.315536975860596,2547.08134198189,"0",2,0,6
14,8,0,0.338502168655396,0.342936992645264,2551.4586789608,"0",1,4,6
14,8,0,0.332682132720947,0.33453893661499,2555.83346199989,"0",2,1,6
14,20,1,0.525961875915527,1.99913597106934,2561.86494898796,"0",1,1,6
14,20,1,0.581547021865845,4.0159170627594,2563.88172793388,"0",2,5,6
14,20,1,0.465864896774292,5.998948097229,2565.86475992203,"0",1,0,6
14,20,1,0.398225069046021,7.9985511302948,2567.86436295509,"0",1,0,6
14,20,1,0.48115086555481,10.0156509876251,2569.88146305084,"0",2,7,6
14,20,1,0.498309850692749,12.0156610012054,2571.88147306442,"0",2,2,6
14,20,1,0.53949499130249,13.9991669654846,2573.86497998238,"0",1,6,6
