"Handling","Reward","Choice","Task.RT","Choice.RT","Experiment.Time","Trial.Outcome","Task.Type","Task.Setup","Block"
10,20,2,1.00004482269287,2.00107097625732,9.04132604598999,"0",0,1,1
10,20,1,0.670439004898071,4.00017595291138,11.0404300689697,"0",0,2,1
10,20,1,0.555217027664185,6.00074911117554,13.0410039424896,"0",1,7,1
10,20,2,0.819837093353271,8.0010781288147,15.0413339138031,"0",0,5,1
10,20,2,0,8.00133609771729,15.0415899753571,"Forced travel",0,0,1
10,8,2,0.746495008468628,2.01632905006409,25.0913429260254,"0",2,4,1
10,8,1,0.831070899963379,4.01654410362244,27.0915579795837,"0",2,0,1
10,8,1,0.631494998931885,6.01598405838013,29.0909979343414,"0",2,6,1
10,8,1,0.781803131103516,8.01662087440491,31.0916359424591,"0",2,7,1
10,8,1,0.744863033294678,9.99985408782959,33.0748689174652,"0",0,3,1
10,8,1,0,10.000118970871,33.075131893158,"Reward",0,0,1
10,20,1,0.748964071273804,2.01653814315796,45.1587889194489,"0",2,3,1
10,20,1,0.520051956176758,3.99945116043091,47.1417028903961,"0",1,5,1
10,20,1,0.580647945404053,5.99950313568115,49.1417548656464,"0",1,7,1
10,20,2,1.00011706352234,7.99948310852051,51.1417350769043,"0",0,1,1
10,20,1,0.730847120285034,10.0162479877472,53.1584990024567,"0",2,2,1
10,20,1,0,10.0164580345154,53.158707857132,"Reward",0,0,1
10,4,0,0.5454421043396,0.55263090133667,63.7617418766022,"0",1,6,1
10,4,0,0,0.552767992019653,63.7618789672852,"Quit",0,0,1
10,8,1,0.558369874954224,1.99969506263733,73.7919888496399,"0",1,7,1
10,8,1,0.575406074523926,3.99939298629761,75.7916860580444,"0",1,6,1
10,8,2,0.748488187789917,6.01647806167603,77.8087718486786,"0",2,7,1
10,8,1,0.651607990264893,7.99982810020447,79.7921209335327,"0",1,0,1
10,8,1,0.762819051742554,10.0162220001221,81.8085160255432,"0",2,6,1
10,8,1,0,10.0164301395416,81.8087229728699,"Reward",0,0,1
10,4,1,0.637459993362427,1.99944400787354,93.8587989807129,"0",1,2,1
10,4,1,0.517417907714844,3.99927115440369,95.8586249351501,"0",1,6,1
10,4,1,0.907500028610229,5.9996030330658,97.8589558601379,"0",0,1,1
10,4,1,0.680989980697632,8.01615810394287,99.8755118846893,"0",2,6,1
10,4,2,1.00006890296936,9.999507188797,101.858861923218,"0",0,1,1
10,4,1,0,9.99976706504822,101.85911989212,"Reward",0,0,1
10,4,0,0.398944854736328,0.400702953338623,112.310620069504,"0",2,5,1
10,4,0,0,0.40173602104187,112.311652898788,"Quit",0,0,1
10,8,1,0.63267707824707,2.01628708839417,122.359293937683,"0",2,3,1
10,8,1,0.528023958206177,3.99947810173035,124.342485904694,"0",1,3,1
10,8,1,0.678730964660645,5.99892210960388,126.341928958893,"0",0,6,1
10,8,1,0.630747079849243,7.99929404258728,128.342300891876,"0",1,4,1
10,8,2,0.940186977386475,9.99968504905701,130.342691898346,"0",0,5,1
10,8,1,0,10.0009999275208,130.344006061554,"Reward",0,0,1
10,20,1,0.580292940139771,1.99924302101135,142.392431974411,"0",1,5,1
10,20,1,0.697700023651123,4.01596689224243,144.409154891968,"0",2,3,1
10,20,1,0.57707691192627,5.99966192245483,146.392850875854,"0",1,6,1
10,20,2,0.736289978027344,7.99960088729858,148.392790079117,"0",0,5,1
10,20,1,0.748343944549561,10.0162019729614,150.409391880035,"0",2,4,1
10,20,1,0,10.0175678730011,150.410754919052,"Reward",0,0,1
10,4,1,0.779843807220459,1.99911689758301,162.459534883499,"0",0,3,1
10,4,1,0.664777040481567,4.01557493209839,164.475992918015,"0",2,0,1
10,4,1,0.657151937484741,5.99918484687805,166.459604024887,"0",1,2,1
10,4,1,0.664558172225952,8.0158097743988,168.476228952408,"0",2,4,1
10,4,1,0.796962022781372,10.0159788131714,170.476397037506,"0",2,4,1
10,4,1,0,10.0161879062653,170.476604938507,"Reward",0,0,1
10,20,1,0.798633098602295,2.01607584953308,182.543189048767,"0",2,7,1
10,20,1,0.747215032577515,4.01600885391235,184.543123006821,"0",2,0,1
10,20,2,0.970227003097534,5.99911785125732,186.526229858398,"0",0,5,1
10,20,1,0.538738965988159,7.99931788444519,188.526430845261,"0",1,7,1
10,20,1,0.698394060134888,10.0160980224609,190.543210983276,"0",2,5,1
10,20,1,0,10.0163059234619,190.543417930603,"Reward",0,0,1
10,8,2,1.00010681152344,1.99927091598511,202.593124866486,"0",0,4,1
10,8,1,0.697182178497314,3.99950098991394,204.593354940414,"0",0,3,1
10,8,2,0.764424085617065,6.01609992980957,206.609955072403,"0",2,6,1
10,8,2,0,6.01635479927063,206.610208034515,"Forced travel",0,0,1
10,4,1,0.602218151092529,1.99913001060486,216.643193006516,"0",1,1,1
10,4,1,0.648339033126831,4.01604700088501,218.66011095047,"0",2,1,1
10,4,1,0.505300045013428,5.99909281730652,220.64315700531,"0",1,1,1
10,4,2,0.693204879760742,7.99918389320374,222.643247842789,"0",0,5,1
10,4,1,0.811315059661865,9.99943685531616,224.643501996994,"0",1,6,1
10,4,1,0,10.000522851944,224.644585847855,"Reward",0,0,1
10,8,1,0.646167039871216,1.99873208999634,236.693307876587,"0",0,0,1
10,8,1,0.473706960678101,3.9991090297699,238.693685054779,"0",1,3,1
10,8,1,0.583168029785156,5.99887108802795,240.693445920944,"0",1,6,1
10,8,1,0.648144960403442,8.01489615440369,242.70947098732,"0",2,3,1
10,8,1,0.499763011932373,9.99907493591309,244.693650007248,"0",1,7,1
10,8,1,0,9.99935007095337,244.693923950195,"Reward",0,0,1
10,20,1,0.631577014923096,2.01570200920105,256.760586023331,"0",2,1,1
10,20,2,0.733508825302124,3.99896502494812,258.743849992752,"0",0,7,1
10,20,2,0.797027826309204,6.01566815376282,260.760552883148,"0",2,4,1
10,20,2,0,6.01592206954956,260.760804891586,"Forced travel",0,0,1
10,4,1,0.748453855514526,2.0161190032959,270.810920953751,"0",2,6,1
10,4,1,0.731061935424805,4.01589798927307,272.810699939728,"0",2,2,1
10,4,1,0.635087966918945,5.9992208480835,274.794023990631,"0",1,0,1
10,4,1,0.734731912612915,7.99930882453918,276.794111013412,"0",0,3,1
10,4,1,0.777882099151611,9.99936699867249,278.794168949127,"0",0,6,1
10,4,1,0,9.99957489967346,278.794375896454,"Reward",0,0,1
10,20,0,1.53461885452271,1.53465986251831,290.379620075226,"0",1,4,1
10,20,0,0,1.53568601608276,290.380645990372,"Quit",0,0,1
10,8,1,0.648953914642334,2.01620388031006,300.42778301239,"0",2,3,1
10,8,1,0.564068078994751,3.99881601333618,302.410393953323,"0",1,5,1
10,8,1,0.552760124206543,5.99938297271729,304.410961866379,"0",1,3,1
10,8,1,0.779815912246704,8.0161759853363,306.427754878998,"0",2,4,1
10,8,1,0.578436136245728,9.99955296516418,308.411130905151,"0",1,3,1
10,8,1,0,9.9997730255127,308.411350011826,"Reward",0,0,1
10,4,1,0.688804149627686,1.9989218711853,320.460736989975,"0",0,6,1
10,4,2,0.748642921447754,4.01583099365234,322.477645874023,"0",2,4,1
10,4,1,0.485608816146851,5.99938106536865,324.461196899414,"0",1,5,1
10,4,1,0.70909309387207,7.99939298629761,326.461209058762,"0",0,0,1
10,4,1,0.529996871948242,9.99922800064087,328.461042881012,"0",1,4,1
10,4,1,0,10.0005419254303,328.462355852127,"Reward",0,0,1
10,20,1,0.658767938613892,1.99927806854248,340.511155843735,"0",1,1,1
10,20,2,0.631268978118896,4.0158851146698,342.527763843536,"0",2,6,1
10,20,1,0.576813936233521,5.99912714958191,344.511005878448,"0",1,6,1
10,20,1,0.714200019836426,7.99932718276978,346.511204957962,"0",0,1,1
10,20,1,0.697303056716919,10.0163300037384,348.528208017349,"0",2,2,1
10,20,1,0,10.0165400505066,348.528416872025,"Reward",0,0,1
10,8,1,0.832230091094971,1.99889492988586,360.577906847,"0",0,4,1
10,8,1,0.79827094078064,4.01586604118347,362.594879865646,"0",2,1,1
10,8,1,0.529237985610962,5.9993269443512,364.578340053558,"0",1,7,1
10,8,1,0.575562000274658,7.99911093711853,366.578124046326,"0",1,0,1
10,8,1,0.854489088058472,9.99891591072083,368.577929019928,"0",0,1,1
10,8,1,0,9.9991250038147,368.578135967255,"Reward",0,0,1
10,8,1,0.731817007064819,2.01581597328186,380.645088911057,"0",2,1,1
10,8,1,0.813991069793701,3.99914693832397,382.628421068192,"0",0,4,1
10,8,1,0.99845814704895,5.99916887283325,384.628443002701,"0",2,3,1
10,8,2,0.996742010116577,8.01602101325989,386.645293951035,"0",2,3,1
10,8,1,0.603052139282227,9.9990599155426,388.628332853317,"0",1,1,1
10,8,1,0,9.99927091598511,388.628541946411,"Reward",0,0,1
10,20,1,0.660109043121338,1.99882102012634,400.678467035294,"0",1,6,1
10,20,1,0.690644025802612,3.99904203414917,402.678689002991,"0",0,2,1
10,20,1,0.556425094604492,5.99903917312622,404.678685903549,"0",1,1,1
10,20,1,0.746948003768921,8.01585698127747,406.695503950119,"0",2,2,1
10,20,2,1.00004386901855,9.99897408485413,408.678619861603,"0",0,4,1
10,20,1,0,9.99918103218079,408.678825855255,"Reward",0,0,1
10,4,0,0.317081928253174,0.322463035583496,419.051904916763,"0",1,6,1
10,4,0,0,0.322597026824951,419.05203795433,"Quit",0,0,1
14,20,1,0.837958097457886,1.99897789955139,435.545660018921,"0",0,4,2
14,20,1,0.603910207748413,3.9989800453186,437.54566192627,"0",1,3,2
14,20,1,0.681418895721436,6.01572585105896,439.562407970428,"0",2,0,2
14,20,1,0.764566898345947,8.01577496528625,441.562455892563,"0",2,6,2
14,20,2,0.779973983764648,10.0157508850098,443.562432050705,"0",2,6,2
14,20,1,0.605752944946289,11.9990799427032,445.54576086998,"0",1,0,2
14,20,1,0.698122024536133,14.0157380104065,447.562418937683,"0",2,7,2
14,20,1,0,14.0159969329834,447.562676906586,"Reward",0,0,2
14,4,0,0.258131980895996,0.278043985366821,453.891334056854,"0",0,2,2
14,4,0,0,0.278180122375488,453.89146900177,"Quit",0,0,2
14,8,1,0.815253973007202,2.01594090461731,459.94610786438,"0",2,7,2
14,8,1,0.53446102142334,3.99920701980591,461.929373979568,"0",1,4,2
14,8,1,0.759176015853882,5.99909901618958,463.929266929626,"0",0,4,2
14,8,1,0.669742822647095,7.99915599822998,465.929323911667,"0",1,2,2
14,8,1,0.711595058441162,9.99919199943542,467.929359912872,"0",1,6,2
14,8,1,0.746845960617065,11.9992048740387,469.929373025894,"0",0,4,2
14,8,2,1.00006198883057,13.999233007431,471.929399967194,"0",0,5,2
14,8,1,0,13.9994919300079,471.929657936096,"Reward",0,0,2
14,4,0,0.494378805160522,0.514774084091187,478.494766950607,"0",0,3,2
14,4,0,0,0.514913082122803,478.494904994965,"Quit",0,0,2
14,20,1,0.716437816619873,1.99916005134583,484.529506921768,"0",0,5,2
14,20,1,0.753899097442627,3.99900698661804,486.52935385704,"0",1,7,2
14,20,1,0.731666088104248,6.01585507392883,488.546202898026,"0",2,2,2
14,20,1,0.640166997909546,7.99931597709656,490.529662847519,"0",1,0,2
14,20,1,0.647941827774048,10.015702009201,492.546048879623,"0",2,4,2
14,20,1,0.698453187942505,12.0160019397736,494.546349048615,"0",2,5,2
14,20,1,0.792916059494019,13.9990630149841,496.529409885406,"0",0,2,2
14,20,1,0,13.9992690086365,496.529614925385,"Reward",0,0,2
14,8,1,0.69868278503418,1.99946594238281,504.579738855362,"0",1,2,2
14,8,1,0.744930028915405,3.99945592880249,506.5797290802,"0",0,3,2
14,8,1,0.800652980804443,5.99911594390869,508.579387903214,"0",0,2,2
14,8,1,0.747350931167603,8.01594281196594,510.596214056015,"0",2,2,2
14,8,1,0.898007869720459,10.0161559581757,512.596428871155,"0",2,3,2
14,8,2,0.996645927429199,12.0162689685822,514.596540927887,"0",2,3,2
14,8,1,0.732002973556519,13.9995419979095,516.579814910889,"0",0,6,2
14,8,1,0,14.0009088516235,516.581179857254,"Reward",0,0,2
14,4,0,0.2915940284729,0.311908006668091,522.942457914352,"0",0,0,2
14,4,0,0,0.312042951583862,522.942591905594,"Quit",0,0,2
14,20,1,0.620128870010376,1.99895286560059,528.979789018631,"0",0,2,2
14,20,1,0.569230079650879,3.99903798103333,530.979873895645,"0",1,5,2
14,20,1,0.631687879562378,5.9991729259491,532.980010032654,"0",1,0,2
14,20,1,0.731660127639771,8.01595997810364,534.996795892715,"0",2,5,2
14,20,1,0.847928047180176,10.0159978866577,536.996834039688,"0",2,5,2
14,20,1,0.640922069549561,11.9992828369141,538.980118989944,"0",1,1,2
14,20,1,0.655505895614624,13.9992530345917,540.980089902878,"0",1,2,2
14,20,1,0,13.9995279312134,540.980362892151,"Reward",0,0,2
14,8,2,1.00008296966553,1.99927878379822,549.029983997345,"0",0,4,2
14,8,1,0.606644153594971,3.99929189682007,551.029995918274,"0",1,6,2
14,8,1,0.635149955749512,5.99953293800354,553.030238866806,"0",0,3,2
14,8,1,0.673736095428467,7.99955081939697,555.030256986618,"0",0,0,2
14,8,1,0.586932182312012,9.99953985214233,557.030245065689,"0",1,0,2
14,8,1,0.732765913009644,11.9997749328613,559.03047990799,"0",1,5,2
14,8,1,0.680097103118896,14.0162768363953,561.046982049942,"0",2,6,2
14,8,1,0,14.0176448822021,561.048347949982,"Reward",0,0,2
14,8,1,0.647386074066162,1.99937319755554,569.097054958344,"0",0,0,2
14,8,1,0.720981121063232,3.99939012527466,571.097073078156,"0",0,6,2
14,8,1,0.797055959701538,6.01587319374084,573.113554954529,"0",2,6,2
14,8,2,1.0001208782196,7.99941611289978,575.097099065781,"0",0,7,2
14,8,1,0.728847980499268,9.99945712089539,577.097138881683,"0",0,1,2
14,8,1,0.74796199798584,12.0159571170807,579.113638877869,"0",2,7,2
14,8,1,0.780853986740112,14.0159480571747,581.113630056381,"0",2,5,2
14,8,1,0,14.0161561965942,581.113837003708,"Reward",0,0,2
14,20,1,0.715610027313232,2.0165810585022,589.181014060974,"0",2,1,2
14,20,1,0.795184135437012,4.01617407798767,591.180606842041,"0",2,0,2
14,20,2,0.831583023071289,5.99949812889099,593.163930892944,"0",0,5,2
14,20,2,0.897815942764282,8.01601600646973,595.180448055267,"0",2,0,2
14,20,2,0,8.01732516288757,595.181756019592,"Forced travel",0,0,2
14,4,0,0.273501873016357,0.293821096420288,599.508203029633,"0",0,6,2
14,4,0,0,0.293956995010376,599.508338928223,"Quit",0,0,2
14,4,1,0.648257970809937,2.0155041217804,605.563937902451,"0",2,4,2
14,4,1,0.713670015335083,3.99901604652405,607.547451019287,"0",0,5,2
14,4,1,0.801832914352417,5.99905705451965,609.547492027283,"0",0,3,2
14,4,1,0.818521976470947,7.99875116348267,611.547184944153,"0",0,4,2
14,4,1,0.789620876312256,9.99908804893494,613.547522068024,"0",0,5,2
14,4,1,0.807662963867188,11.9989321231842,615.547365903854,"0",1,1,2
14,4,1,0.757137060165405,13.9989540576935,617.547388076782,"0",0,3,2
14,4,1,0,13.9991590976715,617.547591924667,"Reward",0,0,2
14,20,1,0.679314136505127,1.99930310249329,625.597430944443,"0",1,1,2
14,20,1,0.76285195350647,4.01624298095703,627.614371061325,"0",2,3,2
14,20,1,0.803732872009277,5.99951601028442,629.597645044327,"0",0,1,2
14,20,1,0.717088937759399,7.99948501586914,631.597614049911,"0",0,3,2
14,20,1,0.750917196273804,9.99966502189636,633.597792863846,"0",0,4,2
14,20,1,0.713746786117554,12.0163540840149,635.614481925964,"0",2,1,2
14,20,1,0.687247037887573,13.9996140003204,637.597743034363,"0",0,1,2
14,20,1,0,13.9998741149902,637.598001003265,"Reward",0,0,2
14,8,1,0.589879989624023,1.99935078620911,645.647830963135,"0",1,4,2
14,8,1,0.79613208770752,4.0153489112854,647.663827896118,"0",2,4,2
14,8,1,0.849004030227661,6.01614880561829,649.66462802887,"0",2,5,2
14,8,1,0.615087985992432,7.99947190284729,651.64795088768,"0",1,0,2
14,8,1,0.543630838394165,9.99941992759705,653.647899866104,"0",1,1,2
14,8,1,0.562334060668945,11.999128818512,655.647608041763,"0",1,2,2
14,8,1,0.610451221466064,13.9993848800659,657.647863864899,"0",1,3,2
14,8,1,0,14.0006999969482,657.649177074432,"Reward",0,0,2
14,4,0,0.265937089920044,0.267848968505859,663.966729879379,"0",2,4,2
14,4,0,0,0.268045902252197,663.966925859451,"Quit",0,0,2
14,20,1,0.670643091201782,1.99936008453369,669.998086929321,"0",0,3,2
14,20,1,0.533906936645508,3.99947094917297,671.998197078705,"0",1,7,2
14,20,1,0.834625005722046,5.99950098991394,673.998226881027,"0",0,1,2
14,20,1,0.706128120422363,7.99939894676208,675.998126029968,"0",1,4,2
14,20,1,0.704510927200317,9.9993040561676,677.998029947281,"0",0,2,2
14,20,1,0.649131059646606,11.9992690086365,679.997995853424,"0",1,4,2
14,20,1,0.748115062713623,14.0162179470062,682.014944076538,"0",2,5,2
14,20,1,0,14.0164270401001,682.015151023865,"Reward",0,0,2
14,8,1,0.815666198730469,2.01621103286743,690.081938028336,"0",2,5,2
14,8,1,0.60871696472168,3.99935412406921,692.065080881119,"0",1,5,2
14,8,1,0.663838863372803,5.99929213523865,694.065019845963,"0",1,1,2
14,8,1,0.710523128509521,7.99911618232727,696.064843893051,"0",1,6,2
14,8,2,0.931651830673218,9.99900412559509,698.064730882645,"0",0,5,2
14,8,1,0.724123001098633,11.9993741512299,700.065101861954,"0",0,0,2
14,8,1,0.875693082809448,13.999388217926,702.06511592865,"0",0,2,2
14,8,1,0,13.9996511936188,702.06537604332,"Reward",0,0,2
14,8,0,0.272812843322754,0.275726079940796,708.391737937927,"0",1,3,2
14,8,0,0,0.27587103843689,708.391882896423,"Quit",0,0,2
14,4,0,0.432831048965454,0.434737920761108,712.867454051971,"0",2,4,2
14,4,0,0,0.434937000274658,712.867652893066,"Quit",0,0,2
14,20,1,0.598005056381226,1.99941682815552,718.898612976074,"0",1,3,2
14,20,1,0.763998985290527,4.01593089103699,720.915125846863,"0",2,5,2
14,20,1,0.814137935638428,6.01610779762268,722.915303945541,"0",2,3,2
14,20,1,0.662513017654419,7.99943780899048,724.898633003235,"0",0,3,2
14,20,1,0.798423051834106,9.99948287010193,726.898679018021,"0",0,4,2
14,20,2,0.996623039245605,12.0159518718719,728.915147066116,"0",2,4,2
14,20,1,0.993403196334839,13.9993479251862,730.898541927338,"0",0,7,2
14,20,1,0,13.9995539188385,730.89874792099,"Reward",0,0,2
14,20,1,0.711485862731934,1.99928903579712,738.948762893677,"0",0,6,2
14,20,1,0.781730175018311,4.01610708236694,740.965579986572,"0",2,1,2
14,20,1,0.740130186080933,5.99933385848999,742.948807954788,"0",0,3,2
14,20,1,0.690575122833252,7.99944806098938,744.948920965195,"0",0,4,2
14,20,1,0.593641042709351,9.9994158744812,746.948889017105,"0",1,3,2
14,20,1,0.814886093139648,12.0160899162292,748.965563058853,"0",2,6,2
14,20,1,0.964973926544189,14.016028881073,750.965502023697,"0",2,4,2
14,20,1,0,14.0162298679352,750.965702056885,"Reward",0,0,2
14,8,1,0.639908075332642,1.99924206733704,759.015501976013,"0",1,5,2
14,8,1,0.782513856887817,3.99947094917297,761.015732049942,"0",0,5,2
14,8,1,0.769412994384766,6.01593494415283,763.032194852829,"0",0,7,2
14,8,1,0.777492046356201,7.99927496910095,765.01553606987,"0",0,0,2
14,8,1,0.828505039215088,9.99963903427124,767.015898942947,"0",0,5,2
14,8,1,0.76606297492981,11.9996409416199,769.015900850296,"0",0,1,2
14,8,1,0.849898099899292,13.9995448589325,771.015805959702,"0",1,0,2
14,8,1,0,13.9998049736023,771.016063928604,"Reward",0,0,2
14,4,0,0.115875959396362,0.117652893066406,777.184238910675,"0",2,6,2
14,4,0,0,0.117844820022583,777.18443107605,"Quit",0,0,2
14,20,1,0.707525014877319,1.99911999702454,783.215949058533,"0",0,1,2
14,20,1,0.748178005218506,3.99896192550659,785.21579003334,"0",1,6,2
14,20,1,0.745998859405518,5.99857997894287,787.215407848358,"0",0,4,2
14,20,1,0.68087100982666,7.99893593788147,789.215764045715,"0",1,5,2
14,20,1,0.792753219604492,9.99920511245728,791.216032981873,"0",0,3,2
14,20,1,0.867602109909058,11.9986050128937,793.215432882309,"0",0,0,2
14,20,1,0.796173095703125,13.9993410110474,795.216168880463,"0",1,5,2
14,20,1,0,14.0006530284882,795.217479944229,"Reward",0,0,2
14,4,0,0.431607007980347,0.433667898178101,801.700633049011,"0",2,7,2
14,4,0,0,0.43386697769165,801.700830936432,"Quit",0,0,2
14,4,0,0.314327955245972,0.317202091217041,806.049952983856,"0",1,3,2
14,4,0,0,0.317341089248657,806.050091028214,"Quit",0,0,2
14,8,1,0.620880126953125,1.99942803382874,812.082902908325,"0",1,1,2
14,8,1,0.796701908111572,4.01639986038208,814.099874019623,"0",2,3,2
14,8,1,0.570783853530884,5.99930787086487,816.082782030106,"0",1,4,2
14,8,1,0.593585014343262,7.99928784370422,818.082761049271,"0",1,0,2
14,8,1,0.831695079803467,10.0162808895111,820.099755048752,"0",2,0,2
14,8,1,0.723842859268188,11.9996469020844,822.083121061325,"0",0,3,2
14,8,2,0.995905160903931,14.0162608623505,824.099735021591,"0",2,2,2
14,8,1,0,14.017343044281,824.100816011429,"Reward",0,0,2
14,20,1,0.69389796257019,1.99933886528015,832.149574995041,"0",1,0,2
14,20,1,0.851001024246216,3.99955606460571,834.149792909622,"0",1,6,2
14,20,1,0.666646957397461,5.99947786331177,836.149713993073,"0",1,7,2
14,20,1,0.653217077255249,7.99947595596313,838.149711847305,"0",1,1,2
14,20,1,0.584409952163696,9.99963808059692,840.149873971939,"0",1,3,2
14,20,1,0.782871961593628,11.9997389316559,842.149975061417,"0",0,1,2
14,20,1,0.814659118652344,14.0163459777832,844.166583061218,"0",2,2,2
14,20,1,0,14.0166070461273,844.166841983795,"Reward",0,0,2
2,4,2,1.00008511543274,1.9991888999939,858.149860858917,"0",0,5,3
2,4,2,0,2.00016283988953,858.150833845139,"Forced travel",0,0,3
2,20,1,0.66565990447998,2.0162250995636,876.200301885605,"0",2,4,3
2,20,1,0,2.01641917228699,876.200495004654,"Reward",0,0,3
2,8,1,0.664559125900269,2.01582002639771,896.266893863678,"0",2,1,3
2,8,1,0,2.01683306694031,896.267905950546,"Reward",0,0,3
2,4,1,0.631269931793213,1.99932885169983,916.317373991013,"0",0,6,3
2,4,1,0,2.00033688545227,916.318381071091,"Reward",0,0,3
2,8,1,0.64996600151062,2.00011801719666,936.36733007431,"0",2,2,3
2,8,1,0,2.00032806396484,936.367537975311,"Reward",0,0,3
2,20,1,0.615631103515625,2.01534986495972,956.433490037918,"0",2,2,3
2,20,1,0,2.01556181907654,956.433701038361,"Reward",0,0,3
2,8,1,0.665260791778564,2.01559901237488,976.501230955124,"0",2,7,3
2,8,1,0,2.01585984230042,976.501491069794,"Reward",0,0,3
2,20,1,0.694263935089111,1.99948978424072,996.551692962646,"0",0,3,3
2,20,1,0,1.999755859375,996.551956892014,"Reward",0,0,3
2,4,1,0.727311134338379,1.99924898147583,1016.60174584389,"0",0,1,3
2,4,1,0,2.00056195259094,1016.60305905342,"Reward",0,0,3
2,8,1,0.576815128326416,1.99899697303772,1036.65164399147,"0",1,5,3
2,8,1,0,2.0011739730835,1036.65382003784,"Reward",0,0,3
2,4,1,0.54283881187439,1.99925398826599,1056.70186901093,"0",1,5,3
2,4,1,0,1.99947309494019,1056.70208597183,"Reward",0,0,3
2,20,1,0.581529140472412,1.99914598464966,1076.75205898285,"0",1,7,3
2,20,1,0,2.00018715858459,1076.75309801102,"Reward",0,0,3
2,8,1,0.70843505859375,1.99907112121582,1096.80223989487,"0",1,1,3
2,8,1,0,1.99927997589111,1096.80244803429,"Reward",0,0,3
2,4,1,0.579015970230103,1.99983906745911,1116.90278506279,"0",1,4,3
2,4,1,0,2.00006222724915,1116.90300703049,"Reward",0,0,3
2,4,1,0.706003904342651,1.99943208694458,1136.95295500755,"0",0,3,3
2,4,1,0,2.00046300888062,1136.95398592949,"Reward",0,0,3
2,20,1,0.570310115814209,1.99936580657959,1157.00307297707,"0",1,5,3
2,20,1,0,2.00045394897461,1157.00415897369,"Reward",0,0,3
2,8,1,0.898910999298096,2.01615595817566,1177.06999802589,"0",2,2,3
2,8,1,0,2.01752090454102,1177.07136106491,"Reward",0,0,3
2,20,1,0.798485040664673,2.01569294929504,1197.13647389412,"0",2,6,3
2,20,1,0,2.01590085029602,1197.13668107986,"Reward",0,0,3
2,4,2,0.731040000915527,2.01618194580078,1217.20373487473,"0",2,7,3
2,4,2,0,2.01723504066467,1217.20478701591,"Forced travel",0,0,3
2,8,1,0.781910181045532,2.01560378074646,1235.25364398956,"0",2,6,3
2,8,1,0,2.01581287384033,1235.25385189056,"Reward",0,0,3
2,20,1,0.693387031555176,1.99976706504822,1255.30384993553,"0",1,2,3
2,20,1,0,2.00110101699829,1255.30518293381,"Reward",0,0,3
10,8,1,0.69836688041687,2.01567196846008,1366.28822207451,"0",2,1,4
10,8,2,0.814239025115967,4.01607203483582,1368.28862190247,"0",2,4,4
10,8,1,0.947592973709106,6.01601004600525,1370.28856086731,"0",2,4,4
10,8,1,0.966622114181519,7.99934601783752,1372.27189707756,"0",0,2,4
10,8,2,1.00004911422729,9.99844908714294,1374.2709980011,"0",0,5,4
10,8,2,0,9.99873304367065,1374.27128100395,"Forced travel",0,0,4
10,20,1,0.766016960144043,2.01673793792725,1384.3217279911,"0",2,1,4
10,20,1,0.849676132202148,4.00042605400085,1386.30541706085,"0",0,0,4
10,20,1,0.564507007598877,6.00011801719666,1388.30510807037,"0",1,5,4
10,20,1,0.796911954879761,8.01615309715271,1390.32114195824,"0",2,7,4
10,20,1,0.793344020843506,9.99942207336426,1392.30441188812,"0",0,1,4
10,20,1,0,9.99958300590515,1392.30457186699,"Reward",0,0,4
10,20,2,0.94525408744812,1.99980092048645,1404.35555100441,"0",0,7,4
10,20,1,0.769199848175049,3.99935698509216,1406.35510706902,"0",0,3,4
10,20,1,0.554165124893188,5.99963212013245,1408.35538196564,"0",1,7,4
10,20,2,1.00006890296936,7.99985194206238,1410.35560202599,"0",1,7,4
10,20,2,0,8.00012707710266,1410.35587596893,"Forced travel",0,0,4
10,8,1,0.78222393989563,2.0158998966217,1420.40559506416,"0",2,7,4
10,8,1,0.618492841720581,3.9993109703064,1422.3890068531,"0",1,7,4
10,8,1,0.476802825927734,5.9993748664856,1424.3890709877,"0",1,3,4
10,8,1,0.521891117095947,7.99942398071289,1426.38911986351,"0",1,7,4
10,8,1,0.569056987762451,9.99920296669006,1428.38889789581,"0",1,6,4
10,8,1,0,9.99942684173584,1428.38911986351,"Reward",0,0,4
10,4,1,0.572811126708984,1.9990119934082,1440.43902993202,"0",1,7,4
10,4,1,0.815682888031006,3.9990668296814,1442.43908500671,"0",0,4,4
10,4,1,0.831693887710571,5.99921989440918,1444.43923902512,"0",0,1,4
10,4,1,0.620834827423096,7.99910402297974,1446.43912196159,"0",1,1,4
10,4,1,0.528619050979614,9.9991250038147,1448.43914294243,"0",1,7,4
10,4,1,0,9.99933385848999,1448.43935084343,"Reward",0,0,4
10,4,0,0.183413982391357,0.186578989028931,1458.67684698105,"0",1,0,4
10,4,0,0,0.187279939651489,1458.67754793167,"Quit",0,0,4
10,8,1,0.626401901245117,1.99925708770752,1468.70604491234,"0",1,3,4
10,8,1,0.71429705619812,4.01594209671021,1470.72272992134,"0",2,1,4
10,8,1,0.854865074157715,5.99946808815002,1472.70625591278,"0",0,5,4
10,8,1,0.780766010284424,7.99950814247131,1474.70629692078,"0",0,3,4
10,8,1,0.494067907333374,9.99932098388672,1476.70610904694,"0",1,3,4
10,8,1,0,9.99953103065491,1476.70631885529,"Reward",0,0,4
10,20,1,0.70345401763916,1.99947190284729,1488.75644803047,"0",1,1,4
10,20,1,0.721668004989624,3.99947500228882,1490.75645089149,"0",0,6,4
10,20,1,0.781248092651367,6.01613688468933,1492.77311301231,"0",2,0,4
10,20,1,0.612726926803589,7.99952292442322,1494.75649905205,"0",1,0,4
10,20,1,0.572305917739868,9.999431848526,1496.75640702248,"0",1,0,4
10,20,1,0,10.000746011734,1496.75771999359,"Reward",0,0,4
10,20,1,0.634083986282349,2.00002002716064,1508.80641198158,"0",1,2,4
10,20,2,0.815078020095825,4.0002498626709,1510.80664205551,"0",2,3,4
10,20,1,0.6980140209198,6.0002658367157,1512.80665898323,"0",2,7,4
10,20,1,0.688057899475098,8.00029397010803,1514.8066868782,"0",0,6,4
10,20,1,0.568342208862305,10.0003168582916,1516.80671000481,"0",1,7,4
10,20,1,0,10.0005738735199,1516.80696487427,"Reward",0,0,4
10,4,0,0.00818705558776855,0.0320510864257812,1526.88978791237,"0",0,1,4
10,4,0,0,0.0322151184082031,1526.88995194435,"Quit",0,0,4
10,4,1,0.75609302520752,1.99847102165222,1536.92344903946,"0",0,3,4
10,4,1,0.563859939575195,3.9983971118927,1538.92337393761,"0",1,3,4
10,4,1,0.814383029937744,6.01507616043091,1540.94005298615,"0",2,7,4
10,4,1,0.930958032608032,8.01538014411926,1542.94035696983,"0",2,7,4
10,4,1,0.846670150756836,10.0152339935303,1544.94021105766,"0",2,1,4
10,4,1,0,10.0162389278412,1544.9412150383,"Reward",0,0,4
10,8,1,0.579617977142334,1.99938893318176,1556.99045205116,"0",1,5,4
10,8,1,0.613144874572754,4.0151948928833,1559.00625801086,"0",1,1,4
10,8,1,0.684843063354492,5.9994649887085,1560.99052786827,"0",0,6,4
10,8,1,0.556111097335815,7.99947500228882,1562.99053788185,"0",1,3,4
10,8,1,0.519381999969482,9.99928689002991,1564.99035000801,"0",1,6,4
10,8,1,0,9.99949789047241,1564.99055886269,"Reward",0,0,4
10,4,0,0.0838949680328369,0.0882358551025391,1576.70663285255,"0",1,4,4
10,4,0,0,0.0889389514923096,1576.70733594894,"Quit",0,0,4
10,20,1,0.90283203125,1.99931693077087,1586.73425984383,"0",0,4,4
10,20,1,0.931924104690552,4.01596093177795,1588.75090384483,"0",2,6,4
10,20,1,0.864623069763184,6.01595687866211,1590.75090003014,"0",2,0,4
10,20,1,0.716922044754028,7.99936294555664,1592.73430585861,"0",0,6,4
10,20,1,0.875586032867432,9.99918484687805,1594.73412799835,"0",0,1,4
10,20,1,0,9.99939584732056,1594.73433804512,"Reward",0,0,4
10,4,0,0.0321178436279297,0.0338778495788574,1604.81903505325,"0",2,6,4
10,4,0,0,0.0340759754180908,1604.81923294067,"Quit",0,0,4
10,20,1,0.754049062728882,1.9992778301239,1614.8514380455,"0",0,5,4
10,20,1,0.830243825912476,4.01564383506775,1616.86780405045,"0",2,3,4
10,20,1,0.786985158920288,5.99922895431519,1618.85138988495,"0",0,2,4
10,20,1,0.881822824478149,8.0159318447113,1620.86809206009,"0",2,6,4
10,20,1,0.797214031219482,10.016047000885,1622.86820697784,"0",2,0,4
10,20,1,0,10.0162539482117,1622.8684129715,"Reward",0,0,4
10,8,1,0.815186977386475,2.01590085029602,1634.93495702744,"0",2,5,4
10,8,1,0.550634860992432,3.99926495552063,1636.91832184792,"0",1,7,4
10,8,1,0.605477094650269,5.99931192398071,1638.9183678627,"0",0,6,4
10,8,1,0.684950113296509,7.99916100502014,1640.91821694374,"0",0,5,4
10,8,1,0.575033903121948,9.99926686286926,1642.91832399368,"0",1,0,4
10,8,1,0,9.99952483177185,1642.91858005524,"Reward",0,0,4
10,8,1,0.754142045974731,1.99919104576111,1654.96848988533,"0",0,7,4
10,8,1,0.653861999511719,3.99918794631958,1656.96848702431,"0",0,3,4
10,8,1,0.963660001754761,6.01567792892456,1658.98497700691,"0",2,0,4
10,8,1,0.514917135238647,7.99904704093933,1660.96834588051,"0",1,7,4
10,8,1,0.931412935256958,10.01589012146,1662.9851899147,"0",2,6,4
10,8,1,0,10.0161530971527,1662.98545002937,"Reward",0,0,4
10,20,1,0.755774021148682,1.99882316589355,1675.03494095802,"0",0,7,4
10,20,1,0.63552713394165,3.999027967453,1677.035145998,"0",1,1,4
10,20,1,0.629323959350586,5.99895811080933,1679.03507590294,"0",0,1,4
10,20,1,0.624589920043945,7.99938702583313,1681.03550505638,"0",1,7,4
10,20,1,0.60663890838623,9.99927806854248,1683.03539705276,"0",1,2,4
10,20,1,0,9.99955296516418,1683.03567004204,"Reward",0,0,4
10,4,0,0.0149431228637695,0.0167109966278076,1693.10298991203,"0",2,3,4
10,4,0,0,0.0180270671844482,1693.10430693626,"Quit",0,0,4
10,4,1,0.648174047470093,2.01573801040649,1703.1522898674,"0",2,1,4
10,4,1,0.736666917800903,3.99887299537659,1705.13542485237,"0",0,2,4
10,4,1,0.706120014190674,5.99891090393066,1707.13546299934,"0",1,6,4
10,4,1,0.842406034469604,7.99923491477966,1709.13578701019,"0",0,4,4
10,4,1,0.565815925598145,9.99889492988586,1711.1354470253,"0",1,5,4
10,4,1,0,9.99910092353821,1711.13565206528,"Reward",0,0,4
10,8,1,0.662580013275146,1.99907612800598,1723.18558692932,"0",1,6,4
10,8,1,0.698141813278198,3.99940013885498,1725.1859099865,"0",0,6,4
10,8,2,0.962890148162842,6.01610612869263,1727.20261597633,"0",2,0,4
10,8,1,0.513134002685547,7.99949502944946,1729.18600606918,"0",1,7,4
10,8,1,0.677341938018799,9.99952816963196,1731.18603897095,"0",0,0,4
10,8,1,0,9.99973607063293,1731.18624591827,"Reward",0,0,4
10,20,1,0.832360029220581,2.01613092422485,1743.25281500816,"0",2,4,4
10,20,1,0.947764158248901,4.01592111587524,1745.2526049614,"0",2,2,4
10,20,1,0.772130012512207,5.99939298629761,1747.23607802391,"0",0,4,4
10,20,2,1.00005292892456,7.99925899505615,1749.23594307899,"0",0,7,4
10,20,1,0.98086404800415,9.9994740486145,1751.23615884781,"0",0,2,4
10,20,1,0,9.99973607063293,1751.23641896248,"Reward",0,0,4
10,8,1,0.684094905853271,1.99945402145386,1763.28634905815,"0",0,6,4
10,8,1,0.680744886398315,3.9994101524353,1765.28630495071,"0",0,6,4
10,8,1,0.584200859069824,5.9992561340332,1767.28615093231,"0",1,7,4
10,8,1,0.830313920974731,8.01614999771118,1769.30304503441,"0",2,3,4
10,8,1,0.699280977249146,9.99910402297974,1771.28599905968,"0",1,1,4
10,8,1,0,9.99931406974792,1771.28620791435,"Reward",0,0,4
14,20,1,0.631144046783447,1.99937200546265,1789.60298991203,"0",1,6,5
14,20,1,0.537406921386719,3.9993588924408,1791.60297703743,"0",1,5,5
14,20,1,0.747952938079834,6.01618003845215,1793.61979794502,"0",2,3,5
14,20,1,0.700007915496826,7.99970602989197,1795.60332393646,"0",0,6,5
14,20,1,0.714702844619751,10.016371011734,1797.6199889183,"0",2,5,5
14,20,1,0.774631023406982,11.9997098445892,1799.60332798958,"0",0,3,5
14,20,1,0.657377004623413,13.9995329380035,1801.60315203667,"0",1,2,5
14,20,1,0,13.9997370243073,1801.6033539772,"Reward",0,0,5
14,4,0,0.0137557983398438,0.0169939994812012,1807.67138195038,"0",1,3,5
14,4,0,0,0.0171618461608887,1807.67155003548,"Quit",0,0,5
14,20,1,0.852121829986572,1.9994421005249,1813.70354986191,"0",0,5,5
14,20,1,0.981040000915527,4.01471018791199,1815.71881699562,"0",2,2,5
14,20,1,0.811562776565552,5.99938917160034,1817.70349788666,"0",0,7,5
14,20,1,0.75955605506897,7.9994261264801,1819.70353507996,"0",0,4,5
14,20,1,0.921431064605713,9.99920916557312,1821.70331692696,"0",0,5,5
14,20,1,0.997460126876831,12.0161321163177,1823.72024106979,"0",2,1,5
14,20,1,0.764860868453979,14.0159242153168,1825.7200319767,"0",2,7,5
14,20,1,0,14.0161321163177,1825.72023797035,"Reward",0,0,5
14,8,1,0.748646020889282,2.01561403274536,1833.78682398796,"0",2,3,5
14,8,1,0.639913082122803,3.99894189834595,1835.77015304565,"0",0,3,5
14,8,1,0.815102100372314,6.0158360004425,1837.78704786301,"0",2,6,5
14,8,1,0.548248052597046,7.99919486045837,1839.77040696144,"0",1,5,5
14,8,1,0.740010976791382,9.99921488761902,1841.7704269886,"0",0,2,5
14,8,1,0.585726022720337,11.9990830421448,1843.77029395103,"0",1,6,5
14,8,1,0.744260787963867,13.999321937561,1845.77053284645,"0",0,2,5
14,8,1,0,13.9995269775391,1845.77073693275,"Reward",0,0,5
14,8,0,0.12665581703186,0.147006034851074,1851.96844696999,"0",0,2,5
14,8,0,0,0.148258924484253,1851.96969890594,"Quit",0,0,5
14,4,0,0.0989460945129395,0.100718975067139,1856.10549998283,"0",2,1,5
14,4,0,0,0.100919961929321,1856.1057009697,"Quit",0,0,5
14,20,1,0.781193971633911,2.0160608291626,1862.15399694443,"0",2,5,5
14,20,1,0.731278896331787,4.01611590385437,1864.15405201912,"0",2,3,5
14,20,1,0.729583978652954,5.99994206428528,1866.13787603378,"0",0,5,5
14,20,1,0.765262842178345,7.99946904182434,1868.137403965,"0",0,4,5
14,20,1,0.550171852111816,9.99945187568665,1870.13738703728,"0",1,3,5
14,20,1,0.510436058044434,11.9994668960571,1872.13740301132,"0",1,1,5
14,20,1,0.608809947967529,13.999452829361,1874.13738799095,"0",1,1,5
14,20,1,0,14.0007748603821,1874.1387090683,"Reward",0,0,5
14,20,1,0.701390981674194,2.00011777877808,1882.18753099442,"0",0,2,5
14,20,1,0.746482849121094,4.01658892631531,1884.20400190353,"0",2,4,5
14,20,1,0.574320077896118,6.00014781951904,1886.18756103516,"0",1,4,5
14,20,1,0.72360897064209,8.00018000602722,1888.18759298325,"0",0,3,5
14,20,1,0.581739902496338,9.99998092651367,1890.18739390373,"0",1,2,5
14,20,1,0.796624898910522,12.0168869495392,1892.20429992676,"0",2,6,5
14,20,1,0.567769050598145,14.0002717971802,1894.18768596649,"0",1,5,5
14,20,1,0,14.0005347728729,1894.18794703484,"Reward",0,0,5
14,4,0,0.181922912597656,0.183682203292847,1900.42212700844,"0",2,2,5
14,4,0,0,0.18500018119812,1900.42344403267,"Quit",0,0,5
14,8,1,0.525208950042725,1.99911403656006,1906.45420694351,"0",1,4,5
14,8,1,0.466207981109619,3.99933099746704,1908.45442485809,"0",1,3,5
14,8,1,0.726326942443848,5.99919700622559,1910.45428991318,"0",0,6,5
14,8,1,0.589009046554565,7.99940085411072,1912.45449495316,"0",0,3,5
14,8,1,0.69734001159668,10.0159249305725,1914.47101807594,"0",2,7,5
14,8,1,0.614637851715088,11.9993059635162,1916.45439887047,"0",0,6,5
14,8,1,0.663583993911743,14.0161969661713,1918.47129106522,"0",2,5,5
14,8,1,0,14.0164580345154,1918.47154998779,"Reward",0,0,5
14,4,0,0.0471501350402832,0.0516161918640137,1924.57350802422,"0",1,4,5
14,4,0,0,0.0517511367797852,1924.57364201546,"Quit",0,0,5
14,8,0,0.0494480133056641,0.069998025894165,1928.67538499832,"0",0,6,5
14,8,0,0,0.0701360702514648,1928.67552304268,"Quit",0,0,5
14,4,0,0.182494878768921,0.184380054473877,1932.88996100426,"0",2,5,5
14,4,0,0,0.184576988220215,1932.890157938,"Quit",0,0,5
14,4,0,0.115518093109131,0.117282152175903,1937.03973507881,"0",2,5,5
14,4,0,0,0.11932897567749,1937.04178285599,"Quit",0,0,5
14,8,1,0.673642873764038,1.99898886680603,1943.07127404213,"0",1,6,5
14,8,1,0.647833824157715,4.0157368183136,1945.08802199364,"0",2,5,5
14,8,1,0.492697954177856,5.99932384490967,1947.07160902023,"0",1,3,5
14,8,1,0.784121990203857,7.99926996231079,1949.07155585289,"0",0,1,5
14,8,1,0.814268827438354,10.0157468318939,1951.08803200722,"0",2,6,5
14,8,1,0.686081886291504,11.9992940425873,1953.07157993317,"0",0,3,5
14,8,1,0.480073928833008,13.9993228912354,1955.07160902023,"0",1,3,5
14,8,1,0,13.9995849132538,1955.07186794281,"Reward",0,0,5
14,8,1,0.813847064971924,1.99950695037842,1963.12178087234,"0",0,2,5
14,8,1,0.567534208297729,3.99952292442322,1965.12179684639,"0",1,1,5
14,8,1,0.471858024597168,5.99943995475769,1967.12171506882,"0",1,4,5
14,8,1,0.609929800033569,7.99947786331177,1969.1217520237,"0",0,2,5
14,8,1,0.780349969863892,10.0161838531494,1971.13845896721,"0",2,2,5
14,8,1,0.508251905441284,11.9996659755707,1973.12194085121,"0",1,5,5
14,8,1,0.477376937866211,13.9995489120483,1975.12182402611,"0",1,2,5
14,8,1,0,13.9998140335083,1975.12208604813,"Reward",0,0,5
14,20,1,0.643373966217041,1.99921488761902,1983.17201685905,"0",0,0,5
14,20,1,0.780847072601318,4.01580691337585,1985.1886100769,"0",2,0,5
14,20,1,0.666538000106812,6.01583790779114,1987.18864107132,"0",0,6,5
14,20,1,0.637490034103394,7.99899888038635,1989.17180085182,"0",1,1,5
14,20,2,0.996819972991943,10.0158948898315,1991.18869805336,"0",2,3,5
14,20,1,0.646844148635864,12.0159049034119,1993.18870806694,"0",2,5,5
14,20,1,0.525366067886353,13.9990758895874,1995.17187786102,"0",1,0,5
14,20,1,0,14.0012040138245,1995.17400503159,"Reward",0,0,5
14,20,1,0.632153987884521,1.99943280220032,2003.22219800949,"0",0,5,5
14,20,1,0.572098970413208,3.99916195869446,2005.22192692757,"0",1,1,5
14,20,1,0.748438835144043,6.01608490943909,2007.2388510704,"0",2,3,5
14,20,1,0.757588863372803,7.99920988082886,2009.2219748497,"0",0,4,5
14,20,1,0.540504932403564,9.99945187568665,2011.22221803665,"0",1,3,5
14,20,1,0.714548826217651,12.0162479877472,2013.23901200294,"0",2,2,5
14,20,1,0.639580965042114,13.9992690086365,2015.22203397751,"0",0,6,5
14,20,1,0,13.9994778633118,2015.22224187851,"Reward",0,0,5
14,8,1,0.631219863891602,1.99973511695862,2023.27233791351,"0",0,0,5
14,8,1,0.663873910903931,4.01620292663574,2025.28880500793,"0",2,1,5
14,8,1,0.613857984542847,6.01623892784119,2027.28884100914,"0",2,4,5
14,8,1,0.73138689994812,8.01643013954163,2029.28903198242,"0",2,4,5
14,8,1,0.714751958847046,10.0162689685822,2031.28887104988,"0",2,2,5
14,8,1,0.551069021224976,11.9999151229858,2033.27251696587,"0",1,7,5
14,8,1,0.824970006942749,13.999922990799,2035.2725250721,"0",0,7,5
14,8,1,0,14.0001330375671,2035.2727329731,"Reward",0,0,5
14,4,0,0.0853438377380371,0.105829954147339,2041.42888593674,"0",0,0,5
14,4,0,0,0.105966091156006,2041.42902302742,"Quit",0,0,5
14,8,1,0.738806962966919,1.99963092803955,2047.45586299896,"0",1,0,5
14,8,1,0.596847057342529,3.99957609176636,2049.45580792427,"0",0,7,5
14,8,1,0.457606077194214,5.99975395202637,2051.45598697662,"0",1,3,5
14,8,1,0.547624826431274,8.01652407646179,2053.47275590897,"0",2,2,5
14,8,1,0.528629064559937,9.99987411499023,2055.45610594749,"0",1,0,5
14,8,1,0.498856067657471,11.9996020793915,2057.4558339119,"0",1,2,5
14,8,1,0.563300848007202,13.9996581077576,2059.45588994026,"0",0,6,5
14,8,1,0,13.9998660087585,2059.45609688759,"Reward",0,0,5
14,20,1,0.601263999938965,1.99960494041443,2067.50622105598,"0",0,4,5
14,20,1,0.521195888519287,3.99955105781555,2069.50616788864,"0",1,5,5
14,20,1,0.731340169906616,6.01628589630127,2071.52290201187,"0",2,2,5
14,20,1,0.573033094406128,7.99959802627563,2073.5062148571,"0",1,3,5
14,20,1,0.507091999053955,9.99939894676208,2075.50601506233,"0",1,6,5
14,20,1,0.680320978164673,12.0160000324249,2077.52261590958,"0",2,2,5
14,20,1,0.831779956817627,14.0163650512695,2079.52298092842,"0",2,3,5
14,20,1,0,14.0166130065918,2079.52322793007,"Reward",0,0,5
14,20,1,0.71462607383728,2.01580905914307,2087.5897269249,"0",2,1,5
14,20,1,0.607717037200928,3.99919295310974,2089.57310986519,"0",1,6,5
14,20,1,0.764650106430054,6.01557993888855,2091.58949685097,"0",2,2,5
14,20,1,0.51594090461731,7.99915504455566,2093.57307195663,"0",1,3,5
14,20,1,0.581493139266968,10.0158479213715,2095.58976602554,"0",2,2,5
14,20,1,0.707370042800903,11.9990079402924,2097.57292485237,"0",0,7,5
14,20,1,0.600809097290039,13.998997926712,2099.57291507721,"0",1,0,5
14,20,1,0,13.9992060661316,2099.57312202454,"Reward",0,0,5
14,4,0,0.153954982757568,0.156872987747192,2105.78082489967,"0",1,3,5
14,4,0,0,0.157033920288086,2105.78098607063,"Quit",0,0,5
14,8,1,0.487798929214478,1.9993360042572,2111.80660295486,"0",1,4,5
14,8,1,0.496899843215942,3.99918007850647,2113.80644607544,"0",1,5,5
14,8,1,0.529836893081665,5.99920320510864,2115.80646896362,"0",1,0,5
14,8,1,0.486081123352051,7.99923205375671,2117.80649805069,"0",1,0,5
14,8,1,0.663627862930298,10.0161981582642,2119.82346391678,"0",2,7,5
14,8,1,0.723239898681641,11.9992640018463,2121.80652999878,"0",0,6,5
14,8,1,0.523664951324463,13.9992661476135,2123.80653190613,"0",1,3,5
14,8,1,0,13.9994730949402,2123.80673789978,"Reward",0,0,5
14,8,0,0.143557071685791,0.146447896957397,2130.00378990173,"0",1,0,5
14,8,0,0,0.147692918777466,2130.00503587723,"Quit",0,0,5
14,20,1,0.640821933746338,1.99942398071289,2136.0402200222,"0",0,3,5
14,20,1,0.537427186965942,3.99940705299377,2138.04020285606,"0",1,7,5
14,20,1,0.508985042572021,5.99943399429321,2140.04023003578,"0",1,0,5
14,20,1,0.780082941055298,8.01616907119751,2142.05696487427,"0",2,7,5
14,20,1,0.516235828399658,9.99952793121338,2144.04032301903,"0",1,3,5
14,20,1,0.717461824417114,11.9991171360016,2146.03991293907,"0",0,2,5
14,20,1,0.515218019485474,13.9992499351501,2148.04004502296,"0",1,3,5
14,20,1,0,13.9994580745697,2148.04025197029,"Reward",0,0,5
14,4,0,0.0671870708465576,0.0880320072174072,2154.17916107178,"0",0,4,5
14,4,0,0,0.0881690979003906,2154.17929792404,"Quit",0,0,5
14,20,1,0.779978036880493,1.99921298027039,2160.20719599724,"0",1,6,5
14,20,1,0.696480989456177,3.99909019470215,2162.20707297325,"0",0,7,5
14,20,1,0.614837884902954,5.99925017356873,2164.20723295212,"0",0,1,5
14,20,1,0.814458847045898,8.01597213745117,2166.223954916,"0",2,0,5
14,20,1,0.664981126785278,10.0157060623169,2168.22369003296,"0",2,5,5
14,20,1,0.624204874038696,11.9992489814758,2170.20723199844,"0",0,5,5
14,20,1,0.749535083770752,13.9993300437927,2172.20731401443,"0",0,6,5
14,20,1,0,13.9995911121368,2172.20757293701,"Reward",0,0,5
14,4,0,0.0308399200439453,0.0326220989227295,2178.29065799713,"0",2,5,5
14,4,0,0,0.0336079597473145,2178.29164385796,"Quit",0,0,5
14,8,1,0.731245994567871,2.01610803604126,2184.34078907967,"0",2,0,5
14,8,1,0.484886884689331,3.99910712242126,2186.32378792763,"0",1,3,5
14,8,1,0.588634014129639,5.99942302703857,2188.32410407066,"0",0,7,5
14,8,1,0.578641891479492,7.99944400787354,2190.32412600517,"0",1,0,5
14,8,1,0.71486496925354,10.0161161422729,2192.34079694748,"0",2,0,5
14,8,2,0.864645004272461,12.0161969661713,2194.3408780098,"0",2,1,5
14,8,1,0.794223785400391,13.9992690086365,2196.32395005226,"0",0,1,5
14,8,1,0,13.9994759559631,2196.32415604591,"Reward",0,0,5
2,4,1,0.568179845809937,1.99936890602112,2210.30763196945,"0",1,7,6
2,4,1,0,2.00046801567078,2210.30872893333,"Reward",0,0,6
2,20,1,0.863819122314453,1.99944400787354,2230.35785794258,"0",0,2,6
2,20,1,0,1.99970388412476,2230.35811686516,"Reward",0,0,6
2,8,1,0.748901844024658,2.01542901992798,2250.42408084869,"0",2,3,6
2,8,1,0,2.01639914512634,2250.42505002022,"Reward",0,0,6
2,4,1,0.732189178466797,2.01607418060303,2270.49159288406,"0",2,7,6
2,4,1,0,2.01716804504395,2270.49268507957,"Reward",0,0,6
2,8,1,0.865189790725708,2.01568102836609,2290.55820894241,"0",2,1,6
2,8,1,0,2.0158908367157,2290.55841803551,"Reward",0,0,6
2,20,1,0.608812093734741,1.99947905540466,2310.60850691795,"0",1,5,6
2,20,1,0,2.0004870891571,2310.60951399803,"Reward",0,0,6
2,20,2,0.997215986251831,2.01585388183594,2330.67538404465,"0",2,2,6
2,20,2,0,2.01686096191406,2330.67638993263,"Forced travel",0,0,6
2,20,1,0.631617069244385,2.01571011543274,2348.72556090355,"0",2,6,6
2,20,1,0,2.01591801643372,2348.7257668972,"Reward",0,0,6
2,4,1,0.633204936981201,2.00022792816162,2368.77567386627,"0",2,3,6
2,4,1,0,2.00122690200806,2368.77667093277,"Reward",0,0,6
2,4,1,0.753201007843018,1.99915504455566,2388.82595705986,"0",0,1,6
2,4,1,0,2.00018715858459,2388.8269879818,"Reward",0,0,6
2,8,1,0.471266031265259,1.99913191795349,2408.87631797791,"0",1,4,6
2,8,1,0,1.99940991401672,2408.87659406662,"Reward",0,0,6
2,8,1,0.620215892791748,1.99917793273926,2428.92661690712,"0",1,6,6
2,8,1,0,2.00017380714417,2428.92761206627,"Reward",0,0,6
2,4,1,0.846563100814819,1.99915981292725,2448.97686100006,"0",0,2,6
2,4,1,0,2.00018000602722,2448.97788000107,"Reward",0,0,6
2,8,2,0.864475011825562,2.01490998268127,2469.04278206825,"0",2,1,6
2,8,2,0,2.01508402824402,2469.04295492172,"Forced travel",0,0,6
2,20,1,0.7325279712677,2.01642799377441,2487.09377884865,"0",2,4,6
2,20,1,0,2.01664400100708,2487.09399294853,"Reward",0,0,6
2,20,1,0.594050884246826,1.99910616874695,2507.16070389748,"0",1,5,6
2,20,1,0,2.00017404556274,2507.16176986694,"Reward",0,0,6
2,4,1,0.663857936859131,2.00053119659424,2527.21071696281,"0",0,0,6
2,4,1,0,2.00075507164001,2527.21093988419,"Reward",0,0,6
2,8,2,0.748678922653198,2.01569294929504,2547.27759099007,"0",2,0,6
2,8,2,0,2.01589512825012,2547.27779197693,"Forced travel",0,0,6
2,4,1,0.847178936004639,2.01596117019653,2565.32801389694,"0",2,7,6
2,4,1,0,2.01822304725647,2565.33027386665,"Reward",0,0,6
2,8,1,0.648132085800171,2.01596903800964,2585.39496397972,"0",2,5,6
2,8,1,0,2.01617789268494,2585.39517307281,"Reward",0,0,6
2,20,1,0.593807935714722,1.99936389923096,2605.44516205788,"0",1,5,6
2,20,1,0,2.00152683258057,2605.44732284546,"Reward",0,0,6
