"Handling","Reward","Choice","Task.RT","Choice.RT","Experiment.Time","Trial.Outcome","Task.Type","Task.Setup","Block"
14,8,2,1.00009799003601,1.99885296821594,9.04392695426941,"0",1,6,1
14,8,1,0.543780088424683,4.01553797721863,11.0606119632721,"0",2,5,1
14,8,1,0.748163938522339,6.01568388938904,13.0607578754425,"0",2,6,1
14,8,1,0.763447999954224,7.99903082847595,15.044105052948,"0",1,6,1
14,8,2,0.880084991455078,10.0157477855682,17.0608220100403,"0",2,7,1
14,8,2,0,10.0159509181976,17.0610239505768,"Forced travel",0,0,1
14,4,2,0.782362937927246,2.01577615737915,23.1110110282898,"0",2,7,1
14,4,1,0.905580043792725,3.99912905693054,25.0943648815155,"0",1,4,1
14,4,1,0.790534019470215,5.99910306930542,27.0943388938904,"0",0,5,1
14,4,1,0.760798931121826,7.99916815757751,29.0944039821625,"0",1,2,1
14,4,1,0.74534010887146,9.99923515319824,31.0944709777832,"0",1,4,1
14,4,2,1.00007891654968,11.999351978302,33.0945868492126,"0",1,2,1
14,4,2,0,11.9995560646057,33.094789981842,"Forced travel",0,0,1
14,4,1,0.857072114944458,1.99856805801392,39.1276879310608,"0",0,5,1
14,4,1,0.951128959655762,3.99894690513611,41.1280670166016,"0",1,4,1
14,4,1,0.630801200866699,6.01569795608521,43.1448180675507,"0",2,1,1
14,4,1,0.964104890823364,7.99909591674805,45.1282150745392,"0",0,6,1
14,4,1,0.714675903320312,9.99913001060486,47.1282498836517,"0",0,0,1
14,4,1,0.498406171798706,12.0158100128174,49.1449298858643,"0",2,4,1
14,4,1,0.546869993209839,14.0158860683441,51.145005941391,"0",2,3,1
14,4,1,0,14.0160970687866,51.1452150344849,"Reward",0,0,1
14,20,1,0.718228101730347,1.99902296066284,59.1952440738678,"0",0,0,1
14,20,1,0.673927068710327,3.99903988838196,61.1952610015869,"0",0,3,1
14,20,1,0.883081912994385,5.99907493591309,63.195296049118,"0",0,7,1
14,20,2,1.00007200241089,7.99909400939941,65.1953148841858,"0",0,1,1
14,20,1,0.76697301864624,9.99921607971191,67.195436000824,"0",0,1,1
14,20,1,0.789757013320923,11.999263048172,69.1954839229584,"0",0,5,1
14,20,1,0.580620050430298,13.998960018158,71.1951808929443,"0",0,6,1
14,20,1,0,13.9991719722748,71.1953918933868,"Reward",0,0,1
14,8,2,1.00007200241089,1.99903988838196,79.2457220554352,"0",1,2,1
14,8,1,0.481403112411499,3.99908185005188,81.2457640171051,"0",1,7,1
14,8,2,0.614359855651855,6.01581501960754,83.2624969482422,"0",2,2,1
14,8,2,0,6.01684188842773,83.2635228633881,"Forced travel",0,0,1
14,20,2,0.694977998733521,1.99912905693054,89.2959849834442,"0",1,2,1
14,20,2,0.513714075088501,4.01609683036804,91.3129529953003,"0",2,3,1
14,20,2,0,4.01634502410889,91.3131999969482,"Forced travel",0,0,1
14,8,1,0.775107860565186,1.9990119934082,97.3461849689484,"0",0,6,1
14,8,2,0.881676912307739,4.01571917533875,99.362890958786,"0",2,6,1
14,8,1,0.776056051254272,6.00361514091492,101.350786924362,"0",1,7,1
14,8,1,0.824236154556274,7.99915814399719,103.346329927444,"0",0,2,1
14,8,2,0.8834068775177,9.99919819831848,105.346369981766,"0",1,2,1
14,8,2,0,9.99939918518066,105.346569061279,"Forced travel",0,0,1
14,20,1,0.748756170272827,1.9990508556366,111.379904031754,"0",0,1,1
14,20,1,0.627156972885132,3.99907398223877,113.379926919937,"0",0,5,1
14,20,1,0.679153919219971,5.99912786483765,115.379981040955,"0",0,7,1
14,20,1,0.79467511177063,7.99915194511414,117.380004882812,"0",0,4,1
14,20,1,0.51110315322876,9.99919295310974,119.380045890808,"0",0,4,1
14,20,1,0.807363986968994,11.9993269443512,121.380181074142,"0",1,1,1
14,20,1,0.779536962509155,13.9993278980255,123.380181074142,"0",0,1,1
14,20,1,0,13.9995369911194,123.380388975143,"Reward",0,0,1
14,8,1,0.982084989547729,2.01634907722473,131.446853876114,"0",2,7,1
14,8,1,0.727522850036621,3.99990701675415,133.430412054062,"0",0,7,1
14,8,1,0.766175985336304,5.99998903274536,135.430494070053,"0",1,0,1
14,8,1,0.930643081665039,8.0000171661377,137.430521965027,"0",2,5,1
14,8,1,0.741949081420898,10.0000200271606,139.430525064468,"0",1,1,1
14,8,1,0.550132036209106,12.0001270771027,141.430631875992,"0",1,3,1
14,8,2,0.99685001373291,14.0001931190491,143.430697917938,"0",2,3,1
14,8,1,0,14.0012619495392,143.431766986847,"Reward",0,0,1
14,20,1,0.63205099105835,2.01567792892456,151.497524023056,"0",2,0,1
14,20,1,0.506181001663208,3.99913096427917,153.480977058411,"0",1,7,1
14,20,1,0.817431926727295,5.99911999702454,155.480965852737,"0",1,2,1
14,20,1,0.759795188903809,7.99915409088135,157.48099899292,"0",1,3,1
14,20,2,0.996186971664429,10.0158739089966,159.497720003128,"0",2,1,1
14,20,1,0.498143911361694,12.0159499645233,161.497796058655,"0",2,5,1
14,20,2,0.914608001708984,14.0159730911255,163.497818946838,"0",2,6,1
14,20,2,0,14.0161790847778,163.498023986816,"Forced travel",0,0,1
14,4,1,0.74902081489563,1.99896192550659,169.531322002411,"0",0,0,1
14,4,1,0.509029865264893,3.99901509284973,171.53137588501,"0",0,2,1
14,4,1,0.743451118469238,5.99901294708252,173.531373023987,"0",1,5,1
14,4,1,0.60574197769165,7.9991569519043,175.531517028809,"0",0,5,1
14,4,1,0.455231904983521,9.99916911125183,177.531528949738,"0",0,0,1
14,4,1,0.679610967636108,11.9992260932922,179.531584978104,"0",1,1,1
14,4,1,0.947430849075317,14.0161640644073,181.548523902893,"0",2,4,1
14,4,1,0,14.0164220333099,181.548780918121,"Reward",0,0,1
14,4,1,0.682013034820557,1.99895477294922,189.598484992981,"0",0,1,1
14,4,1,0.423456907272339,3.99903988838196,191.598569869995,"0",0,4,1
14,4,1,0.664689064025879,6.01574087142944,193.615270853043,"0",2,3,1
14,4,1,0.603317975997925,7.99905896186829,195.598588943481,"0",0,0,1
14,4,1,0.846894979476929,10.0159018039703,197.615432024002,"0",2,1,1
14,4,1,0.613049983978271,11.999226808548,199.59875702858,"0",0,2,1
14,4,1,0.51476001739502,13.9992868900299,201.598816871643,"0",0,7,1
14,4,1,0,13.999499797821,201.599029064178,"Reward",0,0,1
14,20,1,0.523965120315552,1.99874114990234,209.648665904999,"0",0,7,1
14,20,1,0.539455890655518,3.99913811683655,211.649061918259,"0",1,3,1
14,20,1,0.61858606338501,5.9991819858551,213.649106025696,"0",1,1,1
14,20,2,0.881405115127563,8.01585412025452,215.665777921677,"0",2,6,1
14,20,2,0.996165990829468,10.0159320831299,217.665855884552,"0",2,7,1
14,20,2,0,10.0161349773407,217.666058063507,"Forced travel",0,0,1
14,4,1,0.632601976394653,1.99888920783997,223.69933795929,"0",1,1,1
14,4,1,0.431670188903809,3.9989321231842,225.699380874634,"0",1,4,1
14,4,1,0.408729076385498,5.99898815155029,227.699436903,"0",1,3,1
14,4,1,0.631294965744019,7.99901008605957,229.699459075928,"0",0,3,1
14,4,1,0.432528972625732,9.99912118911743,231.699569940567,"0",1,4,1
14,4,2,0.981925964355469,12.0157911777496,233.716240882874,"0",2,3,1
14,4,1,0.588456869125366,13.9992091655731,235.699657917023,"0",0,0,1
14,4,1,0,13.9994170665741,235.699864864349,"Reward",0,0,1
14,4,1,0.597785949707031,2.01631307601929,243.766856908798,"0",2,6,1
14,4,1,0.617512941360474,3.9993109703064,245.749855041504,"0",0,3,1
14,4,1,0.780698776245117,6.01602792739868,247.766571998596,"0",2,4,1
14,4,1,0.440548896789551,7.99941205978394,249.749955892563,"0",1,3,1
14,4,1,0.422953128814697,9.99947810173035,251.750021934509,"0",0,6,1
14,4,1,0.417020797729492,11.9995329380035,253.750077009201,"0",1,3,1
14,4,2,0.997009038925171,14.0162749290466,255.766819000244,"0",2,2,1
14,4,1,0,14.0164859294891,255.767029047012,"Reward",0,0,1
14,8,1,0.815654993057251,2.01613306999207,263.834059000015,"0",2,5,1
14,8,1,0.517729997634888,3.99911594390869,265.817043066025,"0",1,5,1
14,8,1,0.681856870651245,6.01585006713867,267.833776950836,"0",2,4,1
14,8,1,0.608808994293213,7.99920606613159,269.817132949829,"0",0,3,1
14,8,1,0.385118007659912,9.99927091598511,271.817198038101,"0",0,7,1
14,8,1,0.431374073028564,11.999321937561,273.817249059677,"0",1,4,1
14,8,1,0.541407108306885,13.9988451004028,275.8167719841,"0",0,4,1
14,8,1,0,13.9990539550781,275.816979885101,"Reward",0,0,1
14,8,1,0.466796875,1.99909710884094,283.86749792099,"0",1,3,1
14,8,1,0.477376937866211,3.99918007850647,285.867579936981,"0",0,3,1
14,8,1,0.813966035842896,6.01587915420532,287.884279966354,"0",2,0,1
14,8,1,0.549814939498901,7.99926996231079,289.867671012878,"0",1,5,1
14,8,1,0.630499124526978,9.99959707260132,291.86799788475,"0",0,2,1
14,8,1,0.477767944335938,11.9993860721588,293.867785930634,"0",0,2,1
14,8,1,0.434842109680176,13.9993550777435,295.867755889893,"0",1,5,1
14,8,1,0,14.000678062439,295.869077920914,"Reward",0,0,1
14,20,1,0.499808073043823,1.99897193908691,303.918007850647,"0",1,5,1
14,20,1,0.420632123947144,3.9989960193634,305.918031930923,"0",1,3,1
14,20,1,0.392327070236206,5.99913501739502,307.918170928955,"0",1,4,1
14,20,1,0.438963890075684,7.99914789199829,309.918184041977,"0",1,5,1
14,20,1,0.981727123260498,10.0158019065857,311.934838056564,"0",2,3,1
14,20,2,0.886882781982422,11.9992249011993,313.918261051178,"0",1,2,1
14,20,1,0.662789106369019,14.0158958435059,315.934932947159,"0",2,3,1
14,20,1,0,14.0161049365997,315.935138940811,"Reward",0,0,1
14,20,1,0.58182692527771,2.01605010032654,324.00226688385,"0",2,4,1
14,20,1,0.715337038040161,3.99900102615356,325.985218048096,"0",0,2,1
14,20,2,0.962851047515869,6.01570200920105,328.001919031143,"0",2,6,1
14,20,1,0.648339033126831,8.01580214500427,330.002018928528,"0",2,5,1
14,20,1,0.573417186737061,9.99917006492615,331.98538684845,"0",0,1,1
14,20,2,0.996845960617065,12.0159060955048,334.002122879028,"0",2,5,1
14,20,2,0,12.0161011219025,334.002316951752,"Forced travel",0,0,1
14,20,1,0.645102024078369,1.99899792671204,340.035557031631,"0",0,7,1
14,20,1,0.430488109588623,3.99961400032043,342.036172866821,"0",1,3,1
14,20,1,0.393404006958008,5.99885392189026,344.03541302681,"0",0,7,1
14,20,1,0.54183292388916,7.99918293952942,346.035742044449,"0",0,0,1
14,20,1,0.564879179000854,10.015909910202,348.052469015121,"0",2,3,1
14,20,1,0.466337919235229,11.999274969101,350.035832881927,"0",0,7,1
14,20,1,0.551023960113525,13.9993510246277,352.035909891129,"0",0,5,1
14,20,1,0,14.0003740787506,352.036931991577,"Reward",0,0,1
14,4,1,0.815421104431152,2.01613998413086,360.103139877319,"0",2,1,1
14,4,1,0.580091953277588,3.99911999702454,362.086119890213,"0",0,1,1
14,4,2,0.435975074768066,5.99923205375671,364.086231946945,"0",1,6,1
14,4,1,0.630099058151245,8.01590704917908,366.102906942368,"0",2,5,1
14,4,1,0.534018993377686,9.99931693077087,368.086317062378,"0",0,6,1
14,4,2,0.4046471118927,11.9993209838867,370.086320877075,"0",1,2,1
14,4,2,0,11.9995250701904,370.086524009705,"Forced travel",0,0,1
14,4,1,0.543725967407227,1.99886918067932,376.119761943817,"0",0,6,1
14,4,1,0.433531999588013,3.99887418746948,378.119766950607,"0",1,3,1
14,4,1,0.626224994659424,5.9988911151886,380.119783878326,"0",0,1,1
14,4,1,0.831844091415405,8.01557612419128,382.136468887329,"0",2,2,1
14,4,1,0.480036020278931,9.998948097229,384.119840860367,"0",1,3,1
14,4,2,1.00009202957153,11.9989612102509,386.119853973389,"0",1,6,1
14,4,2,0.948766946792603,14.0156490802765,388.136541843414,"0",2,1,1
14,4,2,0,14.0158500671387,388.136741876602,"Forced travel",0,0,1
14,8,1,0.868403911590576,1.998948097229,394.16997385025,"0",0,4,1
14,8,1,0.647572994232178,4.01567506790161,396.186701059341,"0",2,6,1
14,8,2,0.996800184249878,6.01566004753113,398.186686038971,"0",2,6,1
14,8,1,0.489956855773926,7.99904108047485,400.170067071915,"0",1,5,1
14,8,1,0.760380983352661,9.99906516075134,402.170090913773,"0",1,0,1
14,8,1,0.805126905441284,11.9991312026978,404.170156955719,"0",0,7,1
14,8,1,0.581801891326904,14.015753030777,406.186779022217,"0",2,1,1
14,8,1,0,14.017067193985,406.188091993332,"Reward",0,0,1
14,8,1,0.691013097763062,1.99877500534058,414.236845970154,"0",1,0,1
14,8,1,0.576943874359131,3.99886083602905,416.236932039261,"0",0,1,1
14,8,1,0.514348030090332,6.01558995246887,418.253659963608,"0",2,5,1
14,8,2,0.431453943252563,8.01560997962952,420.253679990768,"0",2,3,1
14,8,1,0.581563949584961,10.0156099796295,422.253680944443,"0",2,3,1
14,8,1,0.566674947738647,11.9989349842072,424.23700594902,"0",0,6,1
14,8,1,0.457744121551514,13.9989359378815,426.237006902695,"0",1,5,1
14,8,1,0,13.9991459846497,426.237215995789,"Reward",0,0,1
10,4,0,0.444998025894165,0.451667070388794,441.805729866028,"0",1,1,2
10,4,0,0,0.451812028884888,441.80587387085,"Quit",0,0,2
10,8,1,0.678997993469238,1.99907612800598,451.837399959564,"0",1,1,2
10,8,1,0.938566923141479,3.99910593032837,453.837430000305,"0",1,6,2
10,8,2,1.00011682510376,5.9991409778595,455.837465047836,"0",0,7,2
10,8,1,0.588147878646851,7.99909400939941,457.837417840958,"0",0,7,2
10,8,1,0.730154991149902,10.0158219337463,459.854146003723,"0",2,5,2
10,8,1,0,10.0160310268402,459.854353904724,"Reward",0,0,2
10,4,1,0.745270967483521,1.99905800819397,471.904269933701,"0",0,7,2
10,4,1,0.813488960266113,4.01576590538025,473.920976877213,"0",2,2,2
10,4,1,0.663961887359619,6.0157778263092,475.92098903656,"0",2,0,2
10,4,1,0.630427122116089,8.01588582992554,477.921097040176,"0",2,2,2
10,4,1,0.489897966384888,9.9992458820343,479.904456853867,"0",0,7,2
10,4,1,0,9.99945688247681,479.904666900635,"Reward",0,0,2
10,20,2,0.773405075073242,1.99885606765747,491.954616069794,"0",0,2,2
10,20,1,0.55803394317627,3.99880814552307,493.954566955566,"0",1,4,2
10,20,1,0.447799921035767,5.9989161491394,495.954675912857,"0",1,7,2
10,20,1,0.582269906997681,7.99892210960388,497.954681873322,"0",1,0,2
10,20,2,0.996762037277222,10.0152571201324,499.97101688385,"0",2,6,2
10,20,2,0,10.0154612064362,499.971220016479,"Forced travel",0,0,2
10,8,1,0.615180969238281,2.01611399650574,510.022018909454,"0",2,1,2
10,8,1,0.706303119659424,3.99894285202026,512.004848003387,"0",0,3,2
10,8,1,0.948295116424561,6.01556086540222,514.021466016769,"0",2,7,2
10,8,1,0.841736078262329,7.99902391433716,516.004929065704,"0",1,1,2
10,8,1,0.500960111618042,9.99904584884644,518.004951000214,"0",1,7,2
10,8,1,0,9.99926900863647,518.005172967911,"Reward",0,0,2
10,20,2,0.665499925613403,2.01588010787964,530.071770906448,"0",2,5,2
10,20,1,0.713748931884766,3.99935913085938,532.055250883102,"0",0,4,2
10,20,1,0.612826108932495,6.01595997810364,534.071851015091,"0",2,3,2
10,20,1,0.948157072067261,8.01595497131348,536.071846008301,"0",2,6,2
10,20,1,0.643929004669189,9.999351978302,538.055243015289,"0",0,6,2
10,20,1,0,9.99956107139587,538.05545091629,"Reward",0,0,2
10,8,1,0.525384902954102,1.99872612953186,550.105376005173,"0",1,3,2
10,8,1,0.73572301864624,3.99890303611755,552.105555057526,"0",1,1,2
10,8,1,0.478709936141968,5.99876308441162,554.105413913727,"0",1,3,2
10,8,1,0.581144094467163,7.99879503250122,556.105445861816,"0",0,0,2
10,8,1,0.664967060089111,10.015515089035,558.122164964676,"0",2,0,2
10,8,1,0,10.0157220363617,558.122371912003,"Reward",0,0,2
10,20,1,0.564409971237183,2.01548981666565,570.188982009888,"0",2,4,2
10,20,1,0.518491983413696,3.99880599975586,572.172297954559,"0",0,3,2
10,20,1,0.735370874404907,5.99885082244873,574.172342061996,"0",1,0,2
10,20,1,0.963536024093628,8.01553583145142,576.189028024673,"0",2,7,2
10,20,1,0.670135974884033,9.99885892868042,578.172350883484,"0",0,4,2
10,20,1,0,9.99906802177429,578.172558069229,"Reward",0,0,2
10,4,1,0.65043306350708,1.999027967453,590.222595930099,"0",1,6,2
10,4,1,0.548212051391602,4.01572489738464,592.239292860031,"0",2,5,2
10,4,1,0.614181995391846,6.01571393013,594.239280939102,"0",2,4,2
10,4,1,0.92244815826416,7.99909090995789,596.222658872604,"0",0,7,2
10,4,1,0.562437057495117,9.99907779693604,598.222645998001,"0",0,7,2
10,4,1,0,9.99928998947144,598.222856998444,"Reward",0,0,2
10,20,1,0.702950954437256,1.99853801727295,610.272830963135,"0",1,0,2
10,20,1,0.881831169128418,4.01525592803955,612.289548873901,"0",2,1,2
10,20,1,0.665124177932739,6.01528382301331,614.289577007294,"0",2,6,2
10,20,1,0.664605140686035,8.01526880264282,616.289561986923,"0",2,2,2
10,20,1,0.630557060241699,9.99865388870239,618.272947072983,"0",0,3,2
10,20,1,0,9.99886584281921,618.273158073425,"Reward",0,0,2
10,8,1,0.72506308555603,1.9989800453186,630.323091983795,"0",0,3,2
10,8,2,0.598439931869507,3.99901485443115,632.323126077652,"0",1,0,2
10,8,1,0.641858100891113,5.99908781051636,634.323199987411,"0",0,0,2
10,8,1,0.520190954208374,7.99913001060486,636.323241949081,"0",0,0,2
10,8,2,0.611994028091431,9.99909400939941,638.323204994202,"0",1,0,2
10,8,2,0,9.99929285049438,638.323404073715,"Forced travel",0,0,2
10,4,1,0.598095893859863,2.0156261920929,648.37335896492,"0",2,1,2
10,4,2,0.704431056976318,3.99899411201477,650.356726884842,"0",1,6,2
10,4,1,0.630682945251465,5.99898600578308,652.356719017029,"0",0,6,2
10,4,1,0.828879833221436,7.99904012680054,654.356772899628,"0",1,5,2
10,4,1,0.622479915618896,9.9990861415863,656.356818914413,"0",1,0,2
10,4,1,0,9.99930500984192,656.35703587532,"Reward",0,0,2
10,20,2,1.00008296966553,1.99928283691406,668.407019853592,"0",0,2,2
10,20,1,0.697966814041138,4.01588582992554,670.423624038696,"0",2,4,2
10,20,1,0.615138053894043,6.01590800285339,672.423645973206,"0",2,3,2
10,20,1,0.49849009513855,8.01593589782715,674.423673868179,"0",2,4,2
10,20,1,0.498116016387939,10.0159678459167,676.423706054688,"0",2,0,2
10,20,1,0,10.0161769390106,676.423913955688,"Reward",0,0,2
10,4,1,0.581700801849365,2.01571297645569,688.490577936172,"0",2,1,2
10,4,1,0.663875102996826,4.01575183868408,690.490617036819,"0",2,3,2
10,4,1,0.452577829360962,5.99907088279724,692.473935842514,"0",1,5,2
10,4,1,0.79783296585083,8.01573991775513,694.490604877472,"0",2,3,2
10,4,1,0.514693021774292,10.0158050060272,696.490669965744,"0",2,4,2
10,4,1,0,10.016016960144,696.490880966187,"Reward",0,0,2
10,4,1,0.498110055923462,1.9989960193634,708.54088807106,"0",1,4,2
10,4,1,0.992370128631592,3.9989640712738,710.540855884552,"0",0,2,2
10,4,1,0.49852991104126,6.01567006111145,712.55756187439,"0",2,5,2
10,4,1,0.43070387840271,8.01497602462769,714.556868076324,"0",2,1,2
10,4,1,0.578227996826172,9.99905014038086,716.540940999985,"0",0,3,2
10,4,1,0,9.99925994873047,716.541151046753,"Reward",0,0,2
10,20,1,0.598474979400635,2.01570796966553,728.607805013657,"0",2,2,2
10,20,1,0.438860893249512,3.99901413917542,730.591110944748,"0",1,3,2
10,20,1,0.767900943756104,5.99905204772949,732.591148853302,"0",0,1,2
10,20,1,0.672317981719971,7.99908399581909,734.59118103981,"0",1,1,2
10,20,1,0.614603042602539,10.015820980072,736.607918024063,"0",2,2,2
10,20,1,0,10.0160300731659,736.608125925064,"Reward",0,0,2
10,8,1,0.649918079376221,1.99907207489014,748.658089876175,"0",0,5,2
10,8,2,0.398424863815308,3.99907422065735,750.658092975616,"0",1,1,2
10,8,1,0.609424829483032,5.99907803535461,752.658097028732,"0",1,6,2
10,8,2,0.61145281791687,7.99909210205078,754.65811085701,"0",0,1,2
10,8,2,0,7.99929404258728,754.658310890198,"Forced travel",0,0,2
10,8,1,0.647455930709839,2.01554179191589,764.708245992661,"0",2,0,2
10,8,1,0.611128091812134,3.99888181686401,766.691586017609,"0",0,7,2
10,8,1,0.588584184646606,5.99893689155579,768.691639900208,"0",0,1,2
10,8,2,0.885995149612427,7.99900484085083,770.691709041595,"0",1,2,2
10,8,1,0.598369121551514,10.0156779289246,772.708381891251,"0",2,2,2
10,8,1,0,10.0167689323425,772.709471940994,"Reward",0,0,2
10,8,1,0.56416392326355,2.01565289497375,784.775251865387,"0",2,4,2
10,8,1,0.733206033706665,3.99892997741699,786.75852894783,"0",0,7,2
10,8,1,0.52039909362793,5.99894499778748,788.758543968201,"0",0,2,2
10,8,1,0.50546407699585,7.9990508556366,790.758650064468,"0",0,7,2
10,8,1,0.500115871429443,9.9990668296814,792.758666992188,"0",0,4,2
10,8,1,0,9.9992778301239,792.758875846863,"Reward",0,0,2
10,8,1,0.735273122787476,1.99889898300171,804.808784008026,"0",1,7,2
10,8,1,0.625160932540894,3.99894905090332,806.808834075928,"0",1,6,2
10,8,2,0.481232881546021,5.99894118309021,808.808825969696,"0",1,1,2
10,8,2,0.997129201889038,8.01569008827209,810.825574874878,"0",2,4,2
10,8,2,0,8.01589417457581,810.825778007507,"Forced travel",0,0,2
10,20,1,0.838027000427246,1.99918103218079,820.8590259552,"0",0,4,2
10,20,1,0.582060098648071,4.0158679485321,822.875712871552,"0",2,6,2
10,20,1,0.786201000213623,5.99922490119934,824.859070062637,"0",0,4,2
10,20,1,0.712569952011108,7.99931287765503,826.859158039093,"0",1,1,2
10,20,1,0.631572961807251,10.0159819126129,828.875827074051,"0",2,2,2
10,20,1,0,10.0161910057068,828.876034975052,"Reward",0,0,2
10,4,1,0.615185022354126,2.01570701599121,840.942673921585,"0",2,2,2
10,4,1,0.697574138641357,4.01570296287537,842.942669868469,"0",2,7,2
10,4,1,0.666374921798706,5.99903106689453,844.925997972488,"0",0,1,2
10,4,1,0.617450952529907,7.99908685684204,846.92605304718,"0",0,1,2
10,4,1,0.665004968643188,10.0157999992371,848.942765951157,"0",2,3,2
10,4,1,0,10.0160069465637,848.942972898483,"Reward",0,0,2
2,4,1,0.703382968902588,1.99935007095337,867.776382923126,"0",1,4,3
2,4,1,0,2.00042796134949,867.777459859848,"Reward",0,0,3
2,8,1,0.501545906066895,1.99925994873047,887.8266248703,"0",1,4,3
2,8,1,0,1.99946784973145,887.826832056046,"Reward",0,0,3
2,20,1,0.674801111221313,1.99901485443115,907.876893043518,"0",0,7,3
2,20,1,0,1.99922585487366,907.877102851868,"Reward",0,0,3
2,8,1,0.553190946578979,1.99897408485413,927.927191972733,"0",0,4,3
2,8,1,0,1.9991888999939,927.927406072617,"Reward",0,0,3
2,4,1,0.598480939865112,1.99888205528259,947.977390050888,"0",0,0,3
2,4,1,0,2.00020599365234,947.978713035583,"Reward",0,0,3
2,20,1,0.96434211730957,2.01562690734863,968.044316053391,"0",2,5,3
2,20,1,0,2.01784896850586,968.046536922455,"Reward",0,0,3
2,4,1,0.437479972839355,1.99928903579712,988.09454703331,"0",1,3,3
2,4,1,0,2.00147008895874,988.096726894379,"Reward",0,0,3
2,4,0,0.487550973892212,0.491111993789673,1006.63672184944,"0",1,5,3
2,4,0,0,0.492362022399902,1006.63797307014,"Quit",0,0,3
2,20,1,0.698593854904175,2.01568508148193,1024.67822790146,"0",2,5,3
2,20,1,0,2.01589798927307,1024.67843985558,"Reward",0,0,3
2,8,1,0.481900930404663,2.01559710502625,1044.74511790276,"0",2,4,3
2,8,1,0,2.0166871547699,1044.74620890617,"Reward",0,0,3
2,20,1,0.673232793807983,1.99893283843994,1064.79536700249,"0",0,7,3
2,20,1,0,1.99915790557861,1064.79559087753,"Reward",0,0,3
2,8,1,0.598577976226807,2.01541900634766,1084.86207103729,"0",2,0,3
2,8,1,0,2.0165159702301,1084.8631670475,"Reward",0,0,3
2,20,1,0.832562923431396,1.99898791313171,1104.91249799728,"0",1,0,3
2,20,1,0,2.00009202957153,1104.91360092163,"Reward",0,0,3
2,8,1,0.582162857055664,2.0158998966217,1124.97936987877,"0",2,2,3
2,8,1,0,2.01611089706421,1124.97957992554,"Reward",0,0,3
2,4,1,0.615064144134521,2.01559996604919,1145.04629087448,"0",2,2,3
2,4,1,0,2.01668405532837,1145.04737401009,"Reward",0,0,3
2,8,1,0.581830024719238,2.01566600799561,1165.11319994926,"0",2,6,3
2,8,1,0,2.01588797569275,1165.11342096329,"Reward",0,0,3
2,4,1,0.799199104309082,1.99906802177429,1185.16341996193,"0",1,6,3
2,4,1,0,1.9992880821228,1185.16364002228,"Reward",0,0,3
2,20,1,0.494696140289307,1.99901509284973,1205.2136528492,"0",1,3,3
2,20,1,0,2.00118207931519,1205.21581888199,"Reward",0,0,3
2,4,0,0.23178505897522,0.233654975891113,1223.49855399132,"0",2,4,3
2,4,0,0,0.234635829925537,1223.49953484535,"Quit",0,0,3
2,20,1,0.530627012252808,2.01565790176392,1241.54738402367,"0",2,2,3
2,20,1,0,2.01586890220642,1241.54759407043,"Reward",0,0,3
2,8,1,0.490751028060913,1.9990029335022,1261.64763784409,"0",1,3,3
2,8,1,0,2.00009393692017,1261.64872789383,"Reward",0,0,3
14,20,1,0.614604949951172,2.01558804512024,1292.88129997253,"0",2,7,4
14,20,1,0.464755058288574,3.99897003173828,1294.86468195915,"0",1,3,4
14,20,1,0.631776809692383,6.01564288139343,1296.88135504723,"0",2,6,4
14,20,1,0.598249197006226,7.9990348815918,1298.86474704742,"0",1,1,4
14,20,1,0.609324932098389,9.99903297424316,1300.86474490166,"0",1,4,4
14,20,1,0.443691968917847,11.9990789890289,1302.86479091644,"0",1,4,4
14,20,1,0.598644018173218,13.9990899562836,1304.8648018837,"0",0,7,4
14,20,1,0,13.9993100166321,1304.86502099037,"Reward",0,0,4
14,4,1,0.565322875976562,2.01575493812561,1312.93158888817,"0",2,7,4
14,4,1,0.612767934799194,4.01571893692017,1314.93155288696,"0",2,0,4
14,4,1,0.463070869445801,5.99911880493164,1316.91495299339,"0",0,5,4
14,4,1,0.517377138137817,7.99911189079285,1318.91494607925,"0",1,7,4
14,4,1,0.615049123764038,10.0158128738403,1320.9316470623,"0",2,4,4
14,4,1,0.583158016204834,11.9992008209229,1322.91503500938,"0",1,4,4
14,4,1,0.497842073440552,13.9991619586945,1324.91499590874,"0",1,0,4
14,4,1,0,13.9993889331818,1324.91522192955,"Reward",0,0,4
14,4,0,0.0163090229034424,0.024238109588623,1330.99059200287,"0",1,7,4
14,4,0,0,0.0243899822235107,1330.9907450676,"Quit",0,0,4
14,8,1,0.682528972625732,2.01676511764526,1337.03207993507,"0",2,0,4
14,8,1,0.747845888137817,4.0165810585022,1339.03189492226,"0",2,6,4
14,8,1,0.447025060653687,5.99994802474976,1341.0152618885,"0",1,5,4
14,8,1,0.526184797286987,7.9999361038208,1343.01524996758,"0",0,3,4
14,8,1,0.729620933532715,10.0166289806366,1345.03194284439,"0",2,7,4
14,8,1,0.507067203521729,11.9997780323029,1347.01509189606,"0",1,7,4
14,8,1,0.466928958892822,14.0000801086426,1349.0153939724,"0",1,3,4
14,8,1,0,14.0013930797577,1349.01670598984,"Reward",0,0,4
14,8,1,0.514059066772461,1.99903106689453,1357.06543588638,"0",0,2,4
14,8,1,0.631656885147095,4.01567006111145,1359.0820748806,"0",2,0,4
14,8,1,0.814918041229248,6.01577496528625,1361.08218002319,"0",2,2,4
14,8,1,0.502860069274902,7.99910497665405,1363.06551003456,"0",1,3,4
14,8,1,0.765119075775146,10.0158240795135,1365.082228899,"0",2,1,4
14,8,1,0.425149917602539,11.999125957489,1367.0655310154,"0",0,4,4
14,8,1,0.564961910247803,14.0158200263977,1369.08222484589,"0",2,0,4
14,8,1,0,14.0160291194916,1369.08243298531,"Reward",0,0,4
14,20,1,0.851269006729126,1.99911093711853,1377.13244891167,"0",0,3,4
14,20,2,0.930895805358887,4.01565480232239,1379.14899301529,"0",2,2,4
14,20,1,0.878321170806885,5.99909591674805,1381.1324338913,"0",1,1,4
14,20,1,0.796857833862305,8.01575088500977,1383.14908885956,"0",2,7,4
14,20,1,0.684155941009521,9.99928879737854,1385.13262796402,"0",0,2,4
14,20,1,0.634194850921631,11.9991018772125,1387.13243889809,"0",1,4,4
14,20,1,0.571054935455322,13.9991629123688,1389.13250088692,"0",0,1,4
14,20,1,0,13.9993720054626,1389.13270902634,"Reward",0,0,4
14,20,1,0.661623954772949,1.99898195266724,1397.18256688118,"0",1,3,4
14,20,1,0.596614122390747,3.99897789955139,1399.18256306648,"0",1,0,4
14,20,2,0.84794807434082,5.99906802177429,1401.18265295029,"0",1,2,4
14,20,1,0.601553916931152,7.99912595748901,1403.182710886,"0",0,5,4
14,20,1,0.680114030838013,10.0157630443573,1405.19934797287,"0",2,3,4
14,20,2,0.812002897262573,11.9991369247437,1407.18272185326,"0",1,6,4
14,20,2,0,11.9993410110474,1407.18292498589,"Forced travel",0,0,4
14,8,1,0.631947994232178,2.01563000679016,1413.23273992538,"0",2,6,4
14,8,1,0.587540149688721,3.9985978603363,1415.21570706367,"0",1,0,4
14,8,1,0.627706050872803,5.99907994270325,1417.21618890762,"0",0,3,4
14,8,1,0.62782096862793,7.99904894828796,1419.21615791321,"0",1,0,4
14,8,1,0.59803295135498,10.0157837867737,1421.23289299011,"0",2,7,4
14,8,1,0.582340002059937,11.999125957489,1423.21623492241,"0",1,0,4
14,8,1,0.480645179748535,13.9991679191589,1425.21627688408,"0",0,3,4
14,8,1,0,13.9993779659271,1425.21648597717,"Reward",0,0,4
14,8,1,0.649242877960205,2.01574897766113,1433.28306889534,"0",2,3,4
14,8,2,0.659121036529541,3.99888491630554,1435.26620388031,"0",1,7,4
14,8,1,0.608431100845337,5.9991238117218,1437.26644206047,"0",0,0,4
14,8,2,0.68187403678894,8.01589679718018,1439.2832159996,"0",2,3,4
14,8,2,0,8.01609492301941,1439.28341293335,"Forced travel",0,0,4
14,20,1,0.620004892349243,1.998948097229,1445.31652092934,"0",0,1,4
14,20,1,0.551600933074951,3.99900102615356,1447.31657505035,"0",0,6,4
14,20,1,0.479814052581787,5.99895691871643,1449.31652998924,"0",1,3,4
14,20,2,0.762737989425659,7.99904704093933,1451.31661987305,"0",1,2,4
14,20,1,0.663640975952148,10.0156760215759,1453.33324885368,"0",2,5,4
14,20,1,0.92828893661499,11.9990379810333,1455.31661105156,"0",0,5,4
14,20,1,0.748399019241333,14.015732049942,1457.33330488205,"0",2,4,4
14,20,1,0,14.0170540809631,1457.3346259594,"Reward",0,0,4
14,4,1,0.670797824859619,1.99864506721497,1465.38313484192,"0",0,5,4
14,4,1,0.638761043548584,3.99895405769348,1467.38344407082,"0",1,0,4
14,4,1,0.631136178970337,6.01590609550476,1469.4003970623,"0",2,5,4
14,4,1,0.557106971740723,7.99900817871094,1471.38349795341,"0",1,0,4
14,4,1,0.681493997573853,10.0157120227814,1473.4002020359,"0",2,1,4
14,4,2,0.753149032592773,11.9990689754486,1475.38355898857,"0",1,2,4
14,4,1,0.597460031509399,13.9990739822388,1477.38356399536,"0",1,7,4
14,4,1,0,13.999284029007,1477.38377285004,"Reward",0,0,4
14,4,0,0.228907823562622,0.231786012649536,1483.66653704643,"0",1,3,4
14,4,0,0,0.231937885284424,1483.66668987274,"Quit",0,0,4
14,20,1,0.670916080474854,1.9989070892334,1489.70039796829,"0",0,2,4
14,20,1,0.478027105331421,3.99895310401917,1491.70044398308,"0",1,4,4
14,20,2,0.784949064254761,5.99884510040283,1493.70033693314,"0",1,6,4
14,20,1,0.755012989044189,7.99895095825195,1495.70044207573,"0",1,0,4
14,20,1,0.815139055252075,10.0156669616699,1497.71715807915,"0",2,6,4
14,20,1,0.631293058395386,12.0156030654907,1499.71709489822,"0",2,0,4
14,20,1,0.614869117736816,14.015734910965,1501.71722698212,"0",2,5,4
14,20,1,0,14.015958070755,1501.71744799614,"Reward",0,0,4
14,20,1,0.630628108978271,2.01569080352783,1509.78397202492,"0",2,0,4
14,20,1,0.746021032333374,4.01573896408081,1511.78401994705,"0",2,2,4
14,20,1,0.499756813049316,5.99906492233276,1513.7673459053,"0",0,4,4
14,20,1,0.730143070220947,8.01575994491577,1515.78404092789,"0",2,7,4
14,20,1,0.703946113586426,9.99912190437317,1517.76740288734,"0",1,1,4
14,20,1,0.664107084274292,12.0157518386841,1519.78403306007,"0",2,2,4
14,20,2,0.711205959320068,13.9991869926453,1521.76746797562,"0",1,2,4
14,20,1,0,13.9993958473206,1521.76767492294,"Reward",0,0,4
14,4,1,0.597223043441772,2.01566004753113,1529.83420491219,"0",2,3,4
14,4,1,0.5642249584198,4.01559495925903,1531.83414006233,"0",2,5,4
14,4,1,0.696061134338379,6.01570010185242,1533.83424496651,"0",2,0,4
14,4,1,0.782500028610229,7.99904990196228,1535.81759500504,"0",1,5,4
14,4,1,0.545475959777832,9.99908089637756,1537.81762599945,"0",0,4,4
14,4,1,0.505517959594727,11.9991240501404,1539.81766796112,"0",1,4,4
14,4,1,0.748245000839233,14.0157690048218,1541.83431386948,"0",2,2,4
14,4,1,0,14.0159759521484,1541.83451890945,"Reward",0,0,4
14,8,2,0.81804895401001,1.99914503097534,1549.88440585136,"0",1,2,4
14,8,1,0.673516988754272,3.99921011924744,1551.88447189331,"0",0,7,4
14,8,1,0.631794929504395,6.01586818695068,1553.90112996101,"0",2,0,4
14,8,1,0.547996997833252,8.01597213745117,1555.90123391151,"0",2,0,4
14,8,1,0.590903997421265,9.99932408332825,1557.88458704948,"0",0,2,4
14,8,1,0.470299959182739,11.9993300437927,1559.88459205627,"0",1,5,4
14,8,1,0.614979982376099,14.0159831047058,1561.90124487877,"0",2,0,4
14,8,1,0,14.0161910057068,1561.90145206451,"Reward",0,0,4
14,4,0,0.31964111328125,0.339354991912842,1568.29150986671,"0",0,2,4
14,4,0,0,0.340604066848755,1568.29275894165,"Quit",0,0,4
14,8,1,0.549007177352905,1.99908399581909,1574.31814002991,"0",0,3,4
14,8,1,0.51200008392334,3.99907803535461,1576.31813406944,"0",0,0,4
14,8,2,0.861014127731323,5.99905109405518,1578.31810593605,"0",1,6,4
14,8,1,0.689624071121216,7.99908113479614,1580.31813693047,"0",1,0,4
14,8,1,0.641467809677124,9.99906611442566,1582.3181219101,"0",0,3,4
14,8,1,0.763979196548462,12.0157761573792,1584.33483195305,"0",2,2,4
14,8,1,0.697409868240356,14.0158400535583,1586.33489584923,"0",2,0,4
14,8,1,0,14.0160479545593,1586.33510303497,"Reward",0,0,4
14,4,1,0.497850894927979,1.99894905090332,1594.38501405716,"0",1,5,4
14,4,2,0.81494402885437,4.01564908027649,1596.40171384811,"0",2,6,4
14,4,1,0.548321962356567,6.01568603515625,1598.40175104141,"0",2,5,4
14,4,1,0.613232135772705,7.99905920028687,1600.38512396812,"0",1,6,4
14,4,1,0.498760223388672,9.99904417991638,1602.38510894775,"0",1,5,4
14,4,1,0.615118026733398,12.0157141685486,1604.40177893639,"0",2,2,4
14,4,1,0.583693981170654,13.9991040229797,1606.38516902924,"0",1,3,4
14,4,1,0,13.9993121623993,1606.38537502289,"Reward",0,0,4
14,20,1,0.598744869232178,2.01574897766113,1614.45197105408,"0",2,2,4
14,20,1,0.632354021072388,3.9990029335022,1616.43522500992,"0",0,2,4
14,20,1,0.780968189239502,6.01573610305786,1618.45195794106,"0",2,3,4
14,20,1,0.56506609916687,8.01579809188843,1620.45201992989,"0",2,7,4
14,20,2,0.731650114059448,10.0158150196075,1622.4520368576,"0",2,6,4
14,20,1,0.81489109992981,12.0158181190491,1624.45203995705,"0",2,6,4
14,20,1,0.647787094116211,13.9991540908813,1626.43537592888,"0",1,1,4
14,20,1,0,14.0004770755768,1626.4366979599,"Reward",0,0,4
14,20,1,0.547059059143066,2.01561808586121,1634.50218391418,"0",2,5,4
14,20,1,0.466379165649414,3.99900007247925,1636.48556494713,"0",0,1,4
14,20,1,0.76319694519043,6.01563000679016,1638.50219607353,"0",2,3,4
14,20,1,0.534868955612183,7.99895095825195,1640.48551702499,"0",0,2,4
14,20,1,0.460132122039795,9.99905896186829,1642.48562502861,"0",1,4,4
14,20,1,0.564418077468872,12.0157389640808,1644.50230407715,"0",2,2,4
14,20,1,0.464548110961914,14.0157279968262,1646.50229406357,"0",2,7,4
14,20,1,0,14.0159361362457,1646.50250101089,"Reward",0,0,4
14,4,2,0.875635862350464,1.99897885322571,1654.55238485336,"0",1,0,4
14,4,1,0.462368011474609,3.99926495552063,1656.55267190933,"0",1,4,4
14,4,0,0.685986042022705,4.68968987464905,1657.24309492111,"0",1,0,4
14,4,0,0,4.6898238658905,1657.24322986603,"Quit",0,0,4
14,8,1,0.524781942367554,1.99897503852844,1663.26914787292,"0",1,7,4
14,8,1,0.737895965576172,3.99904704093933,1665.26921987534,"0",0,7,4
14,8,1,0.56495189666748,6.01563191413879,1667.28580403328,"0",2,1,4
14,8,1,0.51449990272522,8.01575899124146,1669.28593206406,"0",2,4,4
14,8,1,0.51874303817749,9.99911093711853,1671.26928496361,"0",1,7,4
14,8,1,0.65137791633606,11.9991290569305,1673.26930189133,"0",0,5,4
14,8,1,0.528955936431885,13.9991769790649,1675.26935005188,"0",0,6,4
14,8,1,0,14.0004911422729,1675.27066302299,"Reward",0,0,4
14,8,2,1.00007796287537,1.99889492988586,1683.31947684288,"0",1,2,4
14,8,1,0.547022104263306,3.99892497062683,1685.31950807571,"0",0,6,4
14,8,1,0.515031099319458,6.01555109024048,1687.33613395691,"0",2,0,4
14,8,1,0.555294990539551,7.99892902374268,1689.31951189041,"0",1,3,4
14,8,1,0.593472003936768,9.99894404411316,1691.31952691078,"0",1,1,4
14,8,1,0.531358003616333,12.0156559944153,1693.33623886108,"0",2,7,4
14,8,1,0.462666988372803,14.0156679153442,1695.33625102043,"0",2,2,4
14,8,1,0,14.0158770084381,1695.33645892143,"Reward",0,0,4
14,4,2,0.920697927474976,1.99899983406067,1703.38632202148,"0",1,2,4
14,4,1,0.501372098922729,3.99903392791748,1705.38635492325,"0",1,4,4
14,4,1,0.564701080322266,5.99910092353821,1707.38642287254,"0",0,3,4
14,4,1,0.548004865646362,7.99909400939941,1709.3864159584,"0",0,4,4
14,4,1,0.512800931930542,10.0157699584961,1711.4030919075,"0",2,7,4
14,4,1,0.610158920288086,11.9992618560791,1713.38658285141,"0",1,0,4
14,4,1,0.4917151927948,13.9991948604584,1715.38651704788,"0",0,4,4
14,4,1,0,13.9994058609009,1715.38672685623,"Reward",0,0,4
10,4,1,0.521347999572754,1.99953508377075,1730.52005195618,"0",1,3,5
10,4,1,0.486970901489258,3.99954891204834,1732.52006602287,"0",0,6,5
10,4,1,0.664379119873047,6.01622009277344,1734.53673696518,"0",2,2,5
10,4,1,0.388604164123535,7.99954700469971,1736.52006387711,"0",0,4,5
10,4,1,0.515216112136841,10.016261100769,1738.53677892685,"0",2,7,5
10,4,1,0,10.0164699554443,1738.53698587418,"Reward",0,0,5
10,8,1,0.434835910797119,1.99888896942139,1750.58693385124,"0",0,6,5
10,8,2,0.871193170547485,3.99890398979187,1752.58694887161,"0",1,2,5
10,8,1,0.621702909469604,5.9989640712738,1754.58700895309,"0",0,7,5
10,8,1,0.530952930450439,8.01569390296936,1756.60373902321,"0",2,7,5
10,8,1,0.530946016311646,10.0156199932098,1758.60366606712,"0",2,6,5
10,8,1,0,10.0158290863037,1758.60387301445,"Reward",0,0,5
10,8,1,0.666553974151611,1.99888586997986,1770.65385603905,"0",1,1,5
10,8,1,0.423105955123901,3.99890089035034,1772.65387105942,"0",0,6,5
10,8,1,0.574860095977783,5.9988739490509,1774.65384507179,"0",1,7,5
10,8,1,0.557317972183228,7.9989800453186,1776.65395092964,"0",1,0,5
10,8,1,0.473235845565796,9.99900507926941,1778.65397596359,"0",1,5,5
10,8,1,0,9.99921607971191,1778.65418601036,"Reward",0,0,5
10,20,1,0.744096040725708,1.99901294708252,1790.70411705971,"0",0,0,5
10,20,1,0.4704270362854,3.99901008605957,1792.70411491394,"0",0,6,5
10,20,1,0.457207202911377,5.99905204772949,1794.70415687561,"0",0,5,5
10,20,1,0.724703073501587,7.99908208847046,1796.70418691635,"0",1,1,5
10,20,1,0.484162092208862,9.99911308288574,1798.70421791077,"0",0,4,5
10,20,1,0,9.99932408332825,1798.70442795753,"Reward",0,0,5
10,4,1,0.555624008178711,1.99901413917542,1810.75435495377,"0",1,5,5
10,4,1,0.58135986328125,4.01551604270935,1812.7708568573,"0",2,6,5
10,4,1,0.430073022842407,6.01573610305786,1814.77107596397,"0",2,7,5
10,4,1,0.629101991653442,7.99907898902893,1816.75442004204,"0",1,1,5
10,4,1,0.441234111785889,9.99905300140381,1818.75439286232,"0",0,7,5
10,4,1,0,9.999263048172,1818.75460290909,"Reward",0,0,5
10,20,1,0.528673887252808,1.99894905090332,1830.8045539856,"0",1,7,5
10,20,1,0.490944862365723,3.99902987480164,1832.80463504791,"0",0,3,5
10,20,1,0.675142049789429,5.99906492233276,1834.80466985703,"0",1,0,5
10,20,1,0.491230010986328,7.99909090995789,1836.80469584465,"0",1,0,5
10,20,1,0.664074897766113,10.0157568454742,1838.82136201859,"0",2,0,5
10,20,1,0,10.0159659385681,1838.82156991959,"Reward",0,0,5
10,20,1,0.68268609046936,1.9988420009613,1850.87149190903,"0",0,3,5
10,20,1,0.620676040649414,3.99856090545654,1852.87121105194,"0",1,1,5
10,20,1,0.505805015563965,5.99892401695251,1854.87157392502,"0",0,3,5
10,20,1,0.421234130859375,7.99895000457764,1856.87159895897,"0",0,4,5
10,20,2,0.933187961578369,9.99894404411316,1858.87159395218,"0",1,2,5
10,20,1,0,10.0002670288086,1858.87291502953,"Reward",0,0,5
10,20,2,0.769937992095947,1.99924683570862,1870.92179203033,"0",1,2,5
10,20,1,0.468406915664673,3.99921083450317,1872.92175602913,"0",1,3,5
10,20,1,0.613744974136353,6.01596689224243,1874.93851184845,"0",2,4,5
10,20,1,0.564933061599731,8.01599788665771,1876.93854284286,"0",2,2,5
10,20,1,0.515320062637329,10.0160229206085,1878.93856787682,"0",2,7,5
10,20,1,0,10.0162308216095,1878.93877506256,"Reward",0,0,5
10,8,1,0.622611045837402,1.99895191192627,1890.98871302605,"0",0,4,5
10,8,1,0.579959154129028,3.99897599220276,1892.9887368679,"0",0,3,5
10,8,1,0.581920146942139,6.01567888259888,1895.00543999672,"0",2,5,5
10,8,1,0.643033027648926,7.9987359046936,1896.98849701881,"0",1,7,5
10,8,1,0.385950088500977,9.99906206130981,1898.98882293701,"0",1,7,5
10,8,1,0,10.0003778934479,1898.99013805389,"Reward",0,0,5
10,4,0,0.271167993545532,0.290767908096313,1909.33068203926,"0",0,7,5
10,4,0,0,0.290904998779297,1909.33081889153,"Quit",0,0,5
10,8,1,0.748646974563599,2.01577997207642,1919.37241387367,"0",2,3,5
10,8,1,0.467782974243164,3.99910306930542,1921.3557369709,"0",0,3,5
10,8,1,0.412625074386597,6.01581001281738,1923.37244391441,"0",2,4,5
10,8,1,0.505825042724609,7.9991729259491,1925.35580706596,"0",1,3,5
10,8,1,0.427325010299683,9.99920797348022,1927.3558409214,"0",0,3,5
10,8,1,0,9.99941205978394,1927.35604500771,"Reward",0,0,5
10,4,1,0.452353000640869,1.99898481369019,1939.40597605705,"0",0,6,5
10,4,1,0.514379024505615,4.01567888259888,1941.42267084122,"0",2,7,5
10,4,1,0.947661876678467,5.9990508556366,1943.40604305267,"0",1,6,5
10,4,1,0.680150985717773,8.01560997962952,1945.42260193825,"0",2,5,5
10,4,2,1.00005483627319,9.99908089637756,1947.406072855,"0",1,2,5
10,4,1,0,9.99929189682007,1947.40628290176,"Reward",0,0,5
10,8,1,0.648484945297241,1.99892401695251,1959.45621395111,"0",1,4,5
10,8,1,0.465266942977905,3.99897694587708,1961.45626688004,"0",0,6,5
10,8,1,0.881592035293579,6.01569986343384,1963.47299003601,"0",2,0,5
10,8,1,0.66496205329895,8.01566195487976,1965.47295188904,"0",2,5,5
10,8,1,0.648333072662354,10.015734910965,1967.47302484512,"0",2,2,5
10,8,1,0,10.0170528888702,1967.47434091568,"Reward",0,0,5
10,4,1,0.446027040481567,1.99909090995789,1979.52311706543,"0",1,7,5
10,4,1,0.562443971633911,4.01581406593323,1981.53983902931,"0",2,2,5
10,4,1,0.931631088256836,6.01508283615112,1983.53910899162,"0",2,6,5
10,4,1,0.401362895965576,7.99924898147583,1985.52327489853,"0",1,3,5
10,4,1,0.535394906997681,9.99921488761902,1987.52324104309,"0",0,0,5
10,4,1,0,9.99942588806152,1987.52345085144,"Reward",0,0,5
10,20,2,0.728089094161987,1.99901008605957,1999.57343292236,"0",1,2,5
10,20,1,0.4739670753479,3.99917912483215,2001.57360291481,"0",1,4,5
10,20,1,0.543306112289429,5.99905109405518,2003.57347393036,"0",1,7,5
10,20,1,0.572253942489624,7.99901509284973,2005.57343697548,"0",1,1,5
10,20,1,0.864105939865112,10.0157840251923,2007.5902068615,"0",2,2,5
10,20,1,0,10.0160229206085,2007.59044504166,"Reward",0,0,5
10,8,1,0.612662076950073,2.01550602912903,2019.65700387955,"0",2,1,5
10,8,1,0.581809997558594,4.01554989814758,2021.65704798698,"0",2,3,5
10,8,1,0.438744068145752,5.99887299537659,2023.64037084579,"0",1,4,5
10,8,1,0.581444978713989,8.01558399200439,2025.65708184242,"0",2,7,5
10,8,1,0.443118095397949,9.99894309043884,2027.64044094086,"0",1,4,5
10,8,1,0,9.99916791915894,2027.64066505432,"Reward",0,0,5
10,20,2,0.739329814910889,1.99889492988586,2039.69059300423,"0",1,6,5
10,20,1,0.604323148727417,3.99893712997437,2041.6906349659,"0",0,0,5
10,20,2,0.740285158157349,5.99895811080933,2043.69065594673,"0",1,2,5
10,20,2,0,5.99916195869446,2043.69085884094,"Forced travel",0,0,5
10,4,0,0.09840989112854,0.100145101547241,2051.82526397705,"0",2,0,5
10,4,0,0,0.100342035293579,2051.8254609108,"Quit",0,0,5
10,8,1,0.665081977844238,2.01576805114746,2061.87430405617,"0",2,0,5
10,8,1,0.564810991287231,4.01572203636169,2063.87425684929,"0",2,0,5
10,8,1,0.531293869018555,6.01582598686218,2065.87436103821,"0",2,0,5
10,8,1,0.580886840820312,8.01574110984802,2067.87427687645,"0",2,1,5
10,8,1,0.605118036270142,9.99908709526062,2069.85762190819,"0",0,3,5
10,8,1,0,9.99929809570312,2069.85783195496,"Reward",0,0,5
10,8,2,0.691696166992188,1.99896097183228,2081.9077808857,"0",1,0,5
10,8,0,0.247519016265869,2.25055885314941,2082.15937805176,"0",2,5,5
10,8,0,0,2.25075602531433,2082.1595749855,"Quit",0,0,5
10,20,1,0.54137110710144,1.99884700775146,2092.19123387337,"0",0,5,5
10,20,1,0.618951082229614,3.99901604652405,2094.19140291214,"0",0,3,5
10,20,1,0.47188401222229,5.99894690513611,2096.19133400917,"0",1,7,5
10,20,2,0.829069852828979,7.99891710281372,2098.19130301476,"0",1,6,5
10,20,1,0.693822145462036,9.99898600578308,2100.1913728714,"0",0,5,5
10,20,1,0,10.0003070831299,2100.19269299507,"Reward",0,0,5
10,4,1,0.997136116027832,2.015780210495,2112.25827097893,"0",2,5,5
10,4,1,0.463150024414062,3.9990131855011,2114.24150395393,"0",0,0,5
10,4,1,0.731780052185059,6.01570606231689,2116.25819706917,"0",2,3,5
10,4,1,0.565033197402954,8.01578116416931,2118.2582719326,"0",2,4,5
10,4,1,0.464276075363159,9.99913907051086,2120.24163007736,"0",0,3,5
10,4,1,0,9.99934601783752,2120.24183607101,"Reward",0,0,5
10,20,1,0.618470907211304,1.99889492988586,2132.29179906845,"0",0,4,5
10,20,1,0.580687999725342,4.01557207107544,2134.30847597122,"0",2,5,5
10,20,1,0.714526891708374,5.99891996383667,2136.29182386398,"0",1,1,5
10,20,1,0.629475116729736,8.01555395126343,2138.30845785141,"0",2,3,5
10,20,1,0.546232938766479,9.99898600578308,2140.29188990593,"0",0,3,5
10,20,1,0,9.99919605255127,2140.29209899902,"Reward",0,0,5
2,4,2,0.765444040298462,1.99893593788147,2159.15873384476,"0",1,6,6
2,4,2,0,2.00001502037048,2159.15981292725,"Forced travel",0,0,6
2,8,1,0.680366992950439,2.01571297645569,2177.20885396004,"0",2,4,6
2,8,1,0,2.01592683792114,2177.20906591415,"Reward",0,0,6
2,4,0,0.126323938369751,0.129188060760498,2195.38929891586,"0",1,3,6
2,4,0,0,0.129328012466431,2195.38943791389,"Quit",0,0,6
2,20,1,0.615658044815063,2.01599407196045,2213.44233894348,"0",2,0,6
2,20,1,0,2.01706695556641,2213.44341087341,"Reward",0,0,6
2,20,1,0.748831033706665,1.99895405769348,2233.49243688583,"0",1,1,6
2,20,1,0,1.99916315078735,2233.49264502525,"Reward",0,0,6
2,8,1,0.527685880661011,1.99895000457764,2253.54259896278,"0",1,3,6
2,8,1,0,2.00003886222839,2253.54368805885,"Reward",0,0,6
2,20,1,0.912213087081909,1.99995613098145,2273.59270095825,"0",0,7,6
2,20,1,0,2.00103402137756,2273.59377789497,"Reward",0,0,6
2,4,0,0.126060009002686,0.131466865539551,2291.77537107468,"0",1,7,6
2,4,0,0,0.132712841033936,2291.77661585808,"Quit",0,0,6
2,8,1,0.523072004318237,1.99929094314575,2309.80959105492,"0",1,3,6
2,8,1,0,1.99949288368225,2309.80979084969,"Reward",0,0,6
2,8,1,0.655375957489014,1.99886202812195,2329.85963702202,"0",1,0,6
2,8,1,0,1.99908590316772,2329.85986089706,"Reward",0,0,6
2,20,1,0.664723873138428,2.01568603515625,2349.92641496658,"0",2,4,6
2,20,1,0,2.01591897010803,2349.92664694786,"Reward",0,0,6
2,4,2,0.946827173233032,1.99908208847046,2369.9767138958,"0",1,2,6
2,4,2,0,2.00020217895508,2369.97783303261,"Forced travel",0,0,6
2,20,1,0.807600975036621,1.99892497062683,2388.01004099846,"0",0,7,6
2,20,1,0,2.0003080368042,2388.01142191887,"Reward",0,0,6
2,20,1,0.631745100021362,2.01553511619568,2408.07672595978,"0",2,0,6
2,20,1,0,2.01658701896667,2408.07777690887,"Reward",0,0,6
2,8,1,0.644268989562988,1.99893712997437,2428.12684798241,"0",0,7,6
2,8,1,0,1.99914813041687,2428.1270570755,"Reward",0,0,6
2,4,1,0.647020816802979,1.99937415122986,2448.17703485489,"0",0,3,6
2,4,1,0,2.00075316429138,2448.1784119606,"Reward",0,0,6
2,4,1,0.982542991638184,1.99896812438965,2468.22704792023,"0",0,1,6
2,4,1,0,2.00005316734314,2468.22813200951,"Reward",0,0,6
2,8,1,0.60670804977417,1.99883818626404,2488.27717494965,"0",0,4,6
2,8,1,0,2.00101113319397,2488.2793469429,"Reward",0,0,6
2,8,1,0.734897136688232,1.99900102615356,2508.32729697227,"0",1,1,6
2,8,1,0,1.99920988082886,2508.32750487328,"Reward",0,0,6
2,8,1,0.631963968276978,2.01586294174194,2528.39402484894,"0",2,0,6
2,8,1,0,2.01810193061829,2528.39626407623,"Reward",0,0,6
2,4,1,0.532727003097534,2.01635885238647,2548.46083903313,"0",2,5,6
2,4,1,0,2.01747989654541,2548.46195888519,"Reward",0,0,6
2,20,1,0.877285003662109,1.99930596351624,2568.51103806496,"0",1,0,6
2,20,1,0,1.99952411651611,2568.51125502586,"Reward",0,0,6
