"Handling","Reward","Choice","Task.RT","Choice.RT","Experiment.Time","Trial.Outcome","Task.Type","Task.Setup","Block"
14,8,1,0.706139087677002,1.99979400634766,9.04549121856689,"0",1,7,1
14,8,1,0.830763101577759,3.99977803230286,11.0454750061035,"0",0,2,1
14,8,1,0.694361925125122,6.01660013198853,13.0622971057892,"0",2,5,1
14,8,1,0.727517127990723,7.99983811378479,15.0455350875854,"0",0,4,1
14,8,1,0.528716087341309,9.99991011619568,17.0456070899963,"0",0,0,1
14,8,2,0.99720287322998,12.0002450942993,19.0459430217743,"0",2,4,1
14,8,1,0.631265878677368,14.0165250301361,21.0622220039368,"0",2,6,1
14,8,1,0,14.0167329311371,21.062429189682,"Reward",0,0,1
14,20,1,0.752787828445435,1.99924302101135,29.1128730773926,"0",1,0,1
14,20,1,0.892268896102905,3.9990029335022,31.1126320362091,"0",1,7,1
14,20,1,0.574857950210571,5.99903988838196,33.1126701831818,"0",1,1,1
14,20,1,0.703877925872803,7.99911785125732,35.1127481460571,"0",0,1,1
14,20,2,0.981836080551147,10.0158350467682,37.1294651031494,"0",2,5,1
14,20,1,0.594052076339722,11.9992380142212,39.1128680706024,"0",1,4,1
14,20,1,0.596549987792969,13.9996030330658,41.1132321357727,"0",0,2,1
14,20,1,0,14.0006308555603,41.1142601966858,"Reward",0,0,1
14,4,2,1.00006294250488,1.99958682060242,49.1634211540222,"0",0,7,1
14,4,1,0.0121939182281494,4.01598381996155,51.1798181533813,"0",2,5,1
14,4,1,0.45937705039978,5.99967193603516,53.1635050773621,"0",1,1,1
14,4,1,0.796976089477539,8.01629900932312,55.1801340579987,"0",2,0,1
14,4,2,1.0000331401825,9.99974584579468,57.1635811328888,"0",1,2,1
14,4,2,0,9.9999988079071,57.1638321876526,"Forced travel",0,0,1
14,20,1,0.698977947235107,2.01657390594482,63.2139701843262,"0",2,6,1
14,20,1,0.568826913833618,3.99948596954346,65.1968820095062,"0",0,3,1
14,20,1,0.664654016494751,6.01638197898865,67.2137780189514,"0",2,3,1
14,20,1,0.621502161026001,7.999755859375,69.1971530914307,"0",0,2,1
14,20,1,0.696913957595825,10.0165848731995,71.2139811515808,"0",2,6,1
14,20,1,0.581205129623413,11.9997389316559,73.1971352100372,"0",0,6,1
14,20,1,0.86393404006958,13.9998378753662,75.1972341537476,"0",2,5,1
14,20,1,0,14.0000460147858,75.1974411010742,"Reward",0,0,1
14,8,2,0.99727201461792,2.01625394821167,83.2646050453186,"0",2,5,1
14,8,1,0.403735876083374,3.99943494796753,85.2477850914001,"0",1,3,1
14,8,1,0.51796817779541,5.99945402145386,87.2478060722351,"0",0,4,1
14,8,1,0.564568996429443,8.01613903045654,89.2644901275635,"0",2,1,1
14,8,1,0.434292078018188,9.99960780143738,91.2479591369629,"0",1,7,1
14,8,1,0.435786008834839,11.9995858669281,93.2479381561279,"0",1,5,1
14,8,1,0.486298084259033,13.9990220069885,95.2473721504211,"0",1,2,1
14,8,1,0,13.9991898536682,95.2475399971008,"Reward",0,0,1
14,4,1,0.779011964797974,1.99926590919495,103.298251152039,"0",0,5,1
14,4,2,0.778276205062866,4.01569700241089,105.314682006836,"0",2,7,1
14,4,1,0.487704992294312,5.99901294708252,107.297998189926,"0",1,1,1
14,4,1,0.435848951339722,7.99946093559265,109.298444986343,"0",1,5,1
14,4,1,0.696630001068115,10.0161249637604,111.315111160278,"0",2,2,1
14,4,1,0.465669870376587,11.9995651245117,113.298550128937,"0",1,0,1
14,4,1,0.798097133636475,14.0159769058228,115.314961194992,"0",2,7,1
14,4,1,0,14.0161859989166,115.315169095993,"Reward",0,0,1
14,4,0,0.318457841873169,0.321907997131348,121.687813997269,"0",1,2,1
14,4,0,0,0.322044134140015,121.687950134277,"Quit",0,0,1
14,20,1,0.563771963119507,1.99913716316223,127.715288162231,"0",1,7,1
14,20,1,0.547124147415161,4.01618313789368,129.732334136963,"0",2,5,1
14,20,1,0.51394510269165,6.01620006561279,131.732353210449,"0",2,7,1
14,20,1,0.597872018814087,8.01626205444336,133.732413053513,"0",2,5,1
14,20,1,0.633552074432373,9.99969100952148,135.715842008591,"0",1,1,1
14,20,1,0.513365983963013,11.9994289875031,137.715581178665,"0",1,1,1
14,20,1,0.413579940795898,13.999498128891,139.715650081635,"0",1,7,1
14,20,1,0,13.9997119903564,139.715862989426,"Reward",0,0,1
14,20,1,0.631732940673828,2.0161190032959,147.782837152481,"0",2,3,1
14,20,1,0.405088901519775,3.99948000907898,149.766198158264,"0",1,4,1
14,20,1,0.538681983947754,5.99953007698059,151.766247034073,"0",0,0,1
14,20,2,0.681174993515015,8.01598811149597,153.782705068588,"0",2,7,1
14,20,1,0.518128156661987,9.99939513206482,155.766113042831,"0",0,7,1
14,20,1,0.555576801300049,11.9999132156372,157.766632080078,"0",0,2,1
14,20,1,0.847899913787842,14.0165410041809,159.783258199692,"0",2,6,1
14,20,1,0,14.0175440311432,159.784260988235,"Reward",0,0,1
14,4,1,0.69855785369873,2.01659512519836,167.850347042084,"0",2,6,1
14,4,1,0.596421003341675,4.01644802093506,169.850200176239,"0",2,2,1
14,4,1,0.58127498626709,6.01626706123352,171.850019216537,"0",2,1,1
14,4,1,0.463356018066406,7.99986219406128,173.833615064621,"0",1,3,1
14,4,1,0.666656970977783,9.99994802474976,175.833700180054,"0",0,7,1
14,4,1,0.548027992248535,12.0166041851044,177.850357055664,"0",2,4,1
14,4,1,0.664731979370117,14.0164561271667,179.850208997726,"0",2,2,1
14,4,1,0,14.0177700519562,179.851521015167,"Reward",0,0,1
14,8,1,0.471606016159058,1.99901413917542,187.900422096252,"0",1,3,1
14,8,1,0.500361919403076,3.99913001060486,189.9005382061,"0",0,4,1
14,8,1,0.395121097564697,5.99915099143982,191.90056014061,"0",1,3,1
14,8,1,0.462589979171753,7.99935698509216,193.900765180588,"0",1,1,1
14,8,1,0.478627920150757,9.99948716163635,195.900895118713,"0",1,0,1
14,8,1,0.714802980422974,12.0159890651703,197.917397022247,"0",2,4,1
14,8,1,0.427114009857178,13.9994759559631,199.900883197784,"0",1,3,1
14,8,1,0,13.9996831417084,199.901090145111,"Reward",0,0,1
14,8,1,0.731842041015625,2.01620984077454,207.968289136887,"0",2,5,1
14,8,1,0.423976898193359,3.99930286407471,209.951382160187,"0",1,5,1
14,8,1,0.581546068191528,6.01574993133545,211.967828989029,"0",2,7,1
14,8,1,0.574061870574951,7.99915194511414,213.951231002808,"0",0,3,1
14,8,1,0.437105894088745,9.99916386604309,215.951243162155,"0",1,7,1
14,8,1,0.421414136886597,11.9994158744812,217.951496124268,"0",1,4,1
14,8,1,0.50967001914978,13.9995620250702,219.951642990112,"0",0,0,1
14,8,1,0,14.000608921051,219.95268702507,"Reward",0,0,1
14,20,1,0.698500156402588,2.01596999168396,228.018589019775,"0",2,1,1
14,20,1,0.490221977233887,3.99904704093933,230.001666069031,"0",0,2,1
14,20,1,0.400144100189209,5.99912905693054,232.001748085022,"0",0,2,1
14,20,1,0.424707174301147,7.99927091598511,234.001890182495,"0",1,7,1
14,20,1,0.464426040649414,10.0156500339508,236.018269062042,"0",2,4,1
14,20,1,0.465580940246582,12.0162489414215,238.018868207932,"0",2,4,1
14,20,2,0.48183798789978,14.0163180828094,240.018937110901,"0",2,2,1
14,20,1,0,14.0176329612732,240.020250082016,"Reward",0,0,1
14,8,1,0.838660001754761,1.99935007095337,248.068860054016,"0",1,2,1
14,8,1,0.545798778533936,3.99947309494019,250.068983078003,"0",0,2,1
14,8,1,0.42435884475708,5.99947190284729,252.068981170654,"0",1,3,1
14,8,1,0.561253070831299,7.99981188774109,254.069322109222,"0",0,5,1
14,8,1,0.447100162506104,9.99955105781555,256.069060087204,"0",1,3,1
14,8,1,0.574229001998901,11.999932050705,258.069442033768,"0",0,5,1
14,8,1,0.487351894378662,14.0001850128174,260.069693088531,"0",0,2,1
14,8,1,0,14.0003938674927,260.069900989532,"Reward",0,0,1
14,4,1,0.732327938079834,2.01626801490784,268.136427164078,"0",2,1,1
14,4,1,0.685148000717163,3.99946308135986,270.119621038437,"0",0,7,1
14,4,1,0.406012058258057,5.99945116043091,272.119609117508,"0",0,7,1
14,4,1,0.408143043518066,7.99959301948547,274.119751214981,"0",1,3,1
14,4,1,0.664276838302612,10.0165650844574,276.136723995209,"0",2,5,1
14,4,1,0.604006052017212,11.9999620914459,278.120121002197,"0",1,2,1
14,4,1,0.347517967224121,14.0000121593475,280.120170116425,"0",1,3,1
14,4,1,0,14.0010731220245,280.121230125427,"Reward",0,0,1
14,8,1,0.669973134994507,1.99947118759155,288.17045712471,"0",0,4,1
14,8,1,0.615013122558594,4.01590800285339,290.186894178391,"0",2,0,1
14,8,1,0.513504028320312,6.01597619056702,292.18696308136,"0",2,4,1
14,8,1,0.556695938110352,7.99937295913696,294.170359134674,"0",0,7,1
14,8,1,0.548146963119507,10.015967130661,296.18695306778,"0",2,5,1
14,8,1,0.427571058273315,11.9995381832123,298.170523166656,"0",0,7,1
14,8,1,0.481375932693481,14.0162830352783,300.187269210815,"0",2,4,1
14,8,1,0,14.0165131092072,300.187498092651,"Reward",0,0,1
14,4,1,0.948495149612427,2.01564812660217,308.25413608551,"0",2,6,1
14,4,1,0.614259958267212,4.01606011390686,310.254548072815,"0",2,7,1
14,4,1,0.443617105484009,5.99937415122986,312.237863063812,"0",1,7,1
14,4,1,0.360761880874634,7.99919509887695,314.237683057785,"0",1,7,1
14,4,1,0.529049873352051,9.99883913993835,316.237327098846,"0",0,0,1
14,4,1,0.444599866867065,11.999498128891,318.237987995148,"0",0,0,1
14,4,1,0.565087080001831,14.0160009860992,320.254489183426,"0",2,5,1
14,4,1,0,14.0162069797516,320.254694223404,"Reward",0,0,1
14,20,1,0.579730987548828,1.99939489364624,328.304790019989,"0",0,7,1
14,20,1,0.388020038604736,3.99943900108337,330.304834127426,"0",1,5,1
14,20,1,0.360608100891113,5.99978184700012,332.305177211761,"0",0,2,1
14,20,1,0.581433057785034,8.01646780967712,334.321864128113,"0",2,0,1
14,20,1,0.520080089569092,9.99960684776306,336.305002212524,"0",0,2,1
14,20,1,0.450555086135864,11.9998679161072,338.30526304245,"0",1,5,1
14,20,1,0.698400974273682,14.0167207717896,340.322116136551,"0",2,2,1
14,20,1,0,14.0176999568939,340.323094129562,"Reward",0,0,1
14,8,1,0.547539949417114,1.99962592124939,348.37232208252,"0",0,0,1
14,8,1,0.439880847930908,3.9997239112854,350.372422218323,"0",0,3,1
14,8,1,0.346503019332886,5.99959397315979,352.372291088104,"0",0,3,1
14,8,1,0.713966131210327,8.01628589630127,354.388983011246,"0",2,0,1
14,8,1,0.501529932022095,9.99997496604919,356.372672080994,"0",1,1,1
14,8,1,0.798237085342407,12.0164167881012,358.389114141464,"0",2,5,1
14,8,1,0.498169898986816,14.0166778564453,360.389376163483,"0",2,1,1
14,8,1,0,14.0169417858124,360.389636993408,"Reward",0,0,1
14,20,1,0.502717018127441,1.99948406219482,368.439676046371,"0",1,6,1
14,20,1,0.647747039794922,3.99958300590515,370.439774990082,"0",0,5,1
14,20,1,0.40028190612793,5.99949908256531,372.439690113068,"0",0,5,1
14,20,1,0.387464046478271,7.99947786331177,374.439670085907,"0",0,5,1
14,20,1,0.430892944335938,9.9997079372406,376.439900159836,"0",1,4,1
14,20,1,0.457010984420776,11.9998540878296,378.440046072006,"0",0,6,1
14,20,1,0.497138977050781,13.9998540878296,380.440046072006,"0",1,2,1
14,20,1,0,14.0001158714294,380.440306186676,"Reward",0,0,1
14,4,1,0.57610011100769,1.99951100349426,388.490216016769,"0",1,0,1
14,4,1,0.534173011779785,3.99968290328979,390.490388154984,"0",0,5,1
14,4,1,0.491760015487671,5.99961996078491,392.490325212479,"0",1,2,1
14,4,1,0.525516033172607,7.99987602233887,394.490581035614,"0",0,7,1
14,4,1,0.423725128173828,9.99987006187439,396.49057507515,"0",1,5,1
14,4,1,0.40394401550293,11.999981880188,398.490688085556,"0",0,6,1
14,4,1,0.382826089859009,13.9998118877411,400.490518093109,"0",1,5,1
14,4,1,0,14.0019340515137,400.492638111115,"Reward",0,0,1
14,4,0,0.430290937423706,0.449728012084961,406.991186141968,"0",0,7,1
14,4,0,0,0.449873924255371,406.991331100464,"Quit",0,0,1
14,20,1,0.537912130355835,1.99985098838806,413.024188041687,"0",1,0,1
14,20,1,0.462518930435181,4.00006699562073,415.02440404892,"0",1,7,1
14,20,1,0.510124921798706,5.9999680519104,417.024306058884,"0",0,3,1
14,20,1,0.347424983978271,8.00017285346985,419.024510145187,"0",0,3,1
14,20,1,0.395447015762329,10.0004260540009,421.0247631073,"0",0,2,1
14,20,1,0.630398035049438,11.9995498657227,423.023886203766,"0",2,3,1
14,20,1,0.498899936676025,14.0005149841309,425.02485203743,"0",2,2,1
14,20,1,0,14.0007228851318,425.025060176849,"Reward",0,0,1
10,4,1,0.505384922027588,1.99963402748108,439.924629211426,"0",0,7,2
10,4,1,0.680462837219238,4.00019693374634,441.925192117691,"0",2,3,2
10,4,1,0.405037879943848,6.00024104118347,443.925235033035,"0",1,3,2
10,4,1,0.630621910095215,8.01665806770325,445.941652059555,"0",2,6,2
10,4,1,0.597290992736816,10.0164320468903,447.941426038742,"0",2,3,2
10,4,1,0,10.0166389942169,447.941632032394,"Reward",0,0,2
10,20,1,0.48422384262085,1.99957990646362,459.992161989212,"0",0,2,2
10,20,1,0.399322986602783,3.99919295310974,461.991775035858,"0",0,0,2
10,20,1,0.931852102279663,6.01625299453735,464.008835077286,"0",2,5,2
10,20,1,0.513785123825073,8.01557397842407,466.008154153824,"0",2,0,2
10,20,1,0.538650989532471,9.99949479103088,467.992076158524,"0",0,3,2
10,20,1,0,9.99970388412476,467.992284059525,"Reward",0,0,2
10,20,1,0.650146961212158,2.015958070755,480.058408021927,"0",2,7,2
10,20,1,0.765160083770752,3.99957513809204,482.04202413559,"0",2,2,2
10,20,1,0.46405816078186,6.00003099441528,484.04248213768,"0",1,5,2
10,20,1,0.465813875198364,8.00024509429932,486.042694091797,"0",0,1,2
10,20,1,0.48707389831543,10.0002739429474,488.042724132538,"0",0,4,2
10,20,1,0,10.0004839897156,488.042932987213,"Reward",0,0,2
10,4,0,0.250469207763672,0.27097487449646,498.36404299736,"0",0,6,2
10,4,0,0,0.271677017211914,498.36474609375,"Quit",0,0,2
10,8,1,0.443266868591309,1.99929189682007,508.392673015594,"0",1,4,2
10,8,1,0.51377010345459,4.01604199409485,510.409422159195,"0",2,3,2
10,8,1,0.428629875183105,5.99944281578064,512.392824172974,"0",0,6,2
10,8,1,0.356339931488037,7.99970197677612,514.393083095551,"0",1,4,2
10,8,1,0.588841915130615,9.99891996383667,516.392300128937,"0",0,5,2
10,8,1,0,9.999098777771,516.39247918129,"Reward",0,0,2
10,8,1,0.532655954360962,1.99883508682251,528.442850112915,"0",1,5,2
10,8,1,0.354340076446533,3.99886107444763,530.44287610054,"0",1,3,2
10,8,1,0.392452955245972,5.99950909614563,532.443525075912,"0",1,4,2
10,8,1,0.473427057266235,7.99945902824402,534.443475008011,"0",1,1,2
10,8,1,0.647932052612305,10.0157959461212,536.459811210632,"0",2,7,2
10,8,1,0,10.0160040855408,536.460018157959,"Reward",0,0,2
10,4,0,0.304455995559692,0.323454141616821,546.834586143494,"0",0,0,2
10,4,0,0,0.323590040206909,546.834721088409,"Quit",0,0,2
10,8,1,0.583250045776367,1.99986791610718,556.860394001007,"0",2,5,2
10,8,1,0.580121040344238,4.01638197898865,558.876908063889,"0",2,0,2
10,8,1,0.814244031906128,6.00017690658569,560.860702991486,"0",1,1,2
10,8,1,0.446201801300049,8.00022602081299,562.860751152039,"0",1,3,2
10,8,1,0.587317943572998,10.000226020813,564.860752105713,"0",0,4,2
10,8,1,0,10.0004329681396,564.860958099365,"Reward",0,0,2
10,8,1,0.565390110015869,1.99928283691406,576.910895109177,"0",1,1,2
10,8,1,0.814589023590088,4.01586198806763,578.927473068237,"0",2,6,2
10,8,1,0.547169923782349,6.01546883583069,580.927081108093,"0",2,5,2
10,8,1,0.56428599357605,8.01612591743469,582.927736997604,"0",2,3,2
10,8,1,0.451694011688232,9.99975800514221,584.911369085312,"0",1,3,2
10,8,1,0,10.0010669231415,584.912677049637,"Reward",0,0,2
10,4,0,0.254043102264404,0.273761034011841,595.235865116119,"0",0,4,2
10,4,0,0,0.273897886276245,595.236001014709,"Quit",0,0,2
10,20,1,0.501549959182739,1.9991660118103,605.261496067047,"0",1,4,2
10,20,1,0.531472206115723,4.01598215103149,607.278310060501,"0",2,6,2
10,20,1,0.421113967895508,5.99907612800598,609.261404037476,"0",1,5,2
10,20,1,0.363116025924683,7.99940204620361,611.261730194092,"0",1,3,2
10,20,1,0.648232936859131,9.99914908409119,613.261476993561,"0",0,4,2
10,20,1,0,9.99935817718506,613.26168513298,"Reward",0,0,2
10,20,1,0.581032991409302,2.01584100723267,625.328386068344,"0",2,3,2
10,20,1,0.580633878707886,3.99946188926697,627.312008142471,"0",1,2,2
10,20,1,0.597310066223145,6.01574683189392,629.328292131424,"0",2,7,2
10,20,1,0.485342025756836,7.99926495552063,631.311810016632,"0",0,6,2
10,20,1,0.47252082824707,9.99930286407471,633.311848163605,"0",1,2,2
10,20,1,0,9.9995129108429,633.312056064606,"Reward",0,0,2
10,4,1,0.62245512008667,1.99869513511658,645.361838102341,"0",0,1,2
10,4,0,0.532404899597168,2.53432512283325,645.897467136383,"0",2,2,2
10,4,0,0,2.53563714027405,645.898779153824,"Quit",0,0,2
10,20,1,0.536381006240845,1.99929904937744,655.929014205933,"0",0,3,2
10,20,1,0.501739978790283,3.99927020072937,657.92898607254,"0",1,2,2
10,20,1,0.687576055526733,5.9996030330658,659.929318189621,"0",0,5,2
10,20,1,0.450848817825317,7.99925303459167,661.928968191147,"0",1,4,2
10,20,1,0.456569910049438,9.99941921234131,663.929134130478,"0",1,0,2
10,20,1,0,9.99962711334229,663.929341077805,"Reward",0,0,2
10,8,1,0.580739974975586,2.01521396636963,675.99596118927,"0",2,0,2
10,8,1,0.49790096282959,4.01537394523621,677.996121168137,"0",2,7,2
10,8,1,0.616873979568481,5.99894094467163,679.979688167572,"0",0,5,2
10,8,1,0.698512077331543,8.01548910140991,681.996236085892,"0",2,6,2
10,8,1,0.494228839874268,9.99919509887695,683.979941129684,"0",1,2,2
10,8,1,0,9.99940299987793,683.980149030685,"Reward",0,0,2
10,4,0,0.263513088226318,0.282372951507568,694.313084125519,"0",0,1,2
10,4,0,0,0.283617973327637,694.314329147339,"Quit",0,0,2
10,20,1,0.586122989654541,1.99897408485413,704.346738100052,"0",1,0,2
10,20,1,0.441892862319946,3.99918508529663,706.346949100494,"0",1,0,2
10,20,1,0.584232091903687,5.99907302856445,708.346837043762,"0",0,7,2
10,20,1,0.630262851715088,8.01596903800964,710.363734006882,"0",2,2,2
10,20,1,0.547587156295776,10.0158050060272,712.363569021225,"0",2,4,2
10,20,1,0,10.0160150527954,712.363778114319,"Reward",0,0,2
10,8,1,0.441715955734253,1.99951100349426,724.414046049118,"0",1,4,2
10,8,1,0.50151801109314,3.99936389923096,726.41389799118,"0",0,4,2
10,8,1,0.423516988754272,5.99974393844604,728.414278030396,"0",0,1,2
10,8,1,0.399449825286865,7.99931788444519,730.413852214813,"0",0,1,2
10,8,1,0.499740839004517,9.99950695037842,732.414041042328,"0",1,0,2
10,8,1,0,10.0008230209351,732.41535615921,"Reward",0,0,2
10,4,0,0.321437120437622,0.325834989547729,742.791052103043,"0",1,4,2
10,4,0,0,0.325970888137817,742.791187047958,"Quit",0,0,2
10,8,1,0.493401050567627,1.99978804588318,752.831237077713,"0",0,6,2
10,8,1,0.615015029907227,4.01641893386841,754.847868204117,"0",2,3,2
10,8,1,0.429647207260132,6.00001406669617,756.831463098526,"0",1,7,2
10,8,1,0.471536874771118,8.00000905990601,758.83145904541,"0",1,0,2
10,8,1,0.33950400352478,9.99986386299133,760.83131313324,"0",1,5,2
10,8,1,0,10.0008730888367,760.832321166992,"Reward",0,0,2
10,8,1,0.475487947463989,1.99919891357422,772.881588220596,"0",1,3,2
10,8,1,0.369483947753906,3.99954891204834,774.88193821907,"0",1,3,2
10,8,1,0.754192113876343,5.9996919631958,776.882082223892,"0",0,5,2
10,8,1,0.591120004653931,7.99940490722656,778.881794214249,"0",1,2,2
10,8,1,0.480710983276367,9.9994969367981,780.881886005402,"0",0,5,2
10,8,1,0,10.0008199214935,780.883208036423,"Reward",0,0,2
10,20,1,0.548514842987061,2.01590085029602,792.949061155319,"0",2,0,2
10,20,1,0.481302976608276,4.01605582237244,794.949215173721,"0",2,0,2
10,20,1,0.725239038467407,5.99906301498413,796.932222127914,"0",0,7,2
10,20,1,0.475131988525391,7.9991238117218,798.932282209396,"0",1,0,2
10,20,1,0.581679105758667,10.0161068439484,800.949266195297,"0",2,3,2
10,20,1,0,10.0163679122925,800.949526071548,"Reward",0,0,2
10,4,0,0.531189918518066,0.534613132476807,811.534906148911,"0",1,2,2
10,4,0,0,0.534749031066895,811.535042047501,"Quit",0,0,2
10,20,1,0.502146005630493,1.99925780296326,821.566378116608,"0",1,7,2
10,20,1,0.515903949737549,3.99896478652954,823.5660841465,"0",0,0,2
10,20,1,0.365785837173462,5.99913477897644,825.566254138947,"0",1,5,2
10,20,1,0.514161109924316,8.01543378829956,827.58255314827,"0",2,2,2
10,20,1,0.487004995346069,9.99938988685608,829.5665102005,"0",0,5,2
10,20,1,0,9.99965500831604,829.566772222519,"Reward",0,0,2
10,20,1,0.715234041213989,2.01589608192444,841.633316040039,"0",2,6,2
10,20,1,0.546837091445923,4.01621913909912,843.633641004562,"0",2,2,2
10,20,1,0.513181209564209,5.99959015846252,845.617010116577,"0",1,7,2
10,20,1,0.477846145629883,7.9993691444397,847.616789102554,"0",0,2,2
10,20,1,0.484947919845581,9.9994421005249,849.61686205864,"0",0,5,2
10,20,1,0,10.0004639625549,849.617883205414,"Reward",0,0,2
2,20,1,0.597460031509399,1.99904084205627,868.284196138382,"0",0,0,3
2,20,1,0,1.99930500984192,868.284459114075,"Reward",0,0,3
2,4,1,0.565407991409302,2.01565599441528,888.350784063339,"0",2,2,3
2,4,1,0,2.0158748626709,888.351002216339,"Reward",0,0,3
2,8,0,0.266040086746216,0.267776966094971,906.670304059982,"0",2,7,3
2,8,0,0,0.26797080039978,906.670497179031,"Quit",0,0,3
2,20,1,0.498569011688232,2.01618504524231,924.719092130661,"0",2,3,3
2,20,1,0,2.01720881462097,924.720115184784,"Reward",0,0,3
2,8,1,0.500922918319702,1.99909710884094,944.76934504509,"0",1,7,3
2,8,1,0,2.00014710426331,944.770394086838,"Reward",0,0,3
2,4,1,0.472063064575195,1.99914193153381,964.819811105728,"0",1,3,3
2,4,1,0,1.99934983253479,964.820019006729,"Reward",0,0,3
2,4,1,0.722157001495361,1.99944400787354,984.870645046234,"0",0,3,3
2,4,1,0,1.99965286254883,984.870853185654,"Reward",0,0,3
2,8,1,0.54324197769165,1.99893093109131,1004.9205160141,"0",0,1,3
2,8,1,0,1.9991409778595,1004.92072510719,"Reward",0,0,3
2,20,1,0.499632120132446,2.01614809036255,1024.98827505112,"0",2,0,3
2,20,1,0,2.01635503768921,1024.98848104477,"Reward",0,0,3
2,4,1,0.482045888900757,2.01601505279541,1045.05558204651,"0",2,1,3
2,4,1,0,2.0181450843811,1045.05771207809,"Reward",0,0,3
2,8,1,0.648372888565063,1.99913811683655,1065.10605311394,"0",0,7,3
2,8,1,0,2.00014591217041,1065.10706019402,"Reward",0,0,3
2,20,1,0.517606973648071,2.00004100799561,1085.15660214424,"0",0,1,3
2,20,1,0,2.00027418136597,1085.15683412552,"Reward",0,0,3
2,8,1,0.519513130187988,1.99948191642761,1105.20750117302,"0",1,4,3
2,8,1,0,2.00081205368042,1105.20883011818,"Reward",0,0,3
2,8,1,0.611024141311646,1.99936103820801,1125.2580871582,"0",1,2,3
2,8,1,0,2.00035500526428,1125.25908207893,"Reward",0,0,3
2,4,1,0.615290880203247,2.01591205596924,1145.32502508163,"0",2,4,3
2,4,1,0,2.01612401008606,1145.32523608208,"Reward",0,0,3
2,20,1,0.617365121841431,1.99984312057495,1165.37590503693,"0",0,2,3
2,20,1,0,2.00005316734314,1165.37611317635,"Reward",0,0,3
2,4,1,0.515271902084351,2.01628088951111,1185.44313621521,"0",2,2,3
2,4,1,0,2.01652693748474,1185.44338107109,"Reward",0,0,3
2,20,1,0.57830286026001,2.00048017501831,1205.49377608299,"0",0,0,3
2,20,1,0,2.0007541179657,1205.49404811859,"Reward",0,0,3
2,20,1,0.66546893119812,2.01624798774719,1225.56078219414,"0",2,4,3
2,20,1,0,2.01645994186401,1225.56099200249,"Reward",0,0,3
2,4,1,0.487146854400635,1.99955105781555,1245.61163115501,"0",1,7,3
2,4,1,0,1.99982213973999,1245.61190009117,"Reward",0,0,3
2,4,1,0.576147079467773,1.9993941783905,1265.66240811348,"0",0,6,3
2,4,1,0,1.99962306022644,1265.66263604164,"Reward",0,0,3
14,8,1,0.661822080612183,1.99842810630798,1297.96309709549,"0",1,5,4
14,8,1,0.552170991897583,3.99853110313416,1299.96320009232,"0",0,0,4
14,8,1,0.449774980545044,5.99868202209473,1301.96335101128,"0",0,0,4
14,8,1,0.403712034225464,7.99866199493408,1303.96333122253,"0",1,5,4
14,8,1,0.55296802520752,9.99872994422913,1305.96339917183,"0",0,5,4
14,8,1,0.613110065460205,12.0156350135803,1307.98030400276,"0",2,6,4
14,8,1,0.496565103530884,14.0154700279236,1309.98013901711,"0",2,5,4
14,8,1,0,14.0156769752502,1309.98034501076,"Reward",0,0,4
14,20,1,0.698943853378296,1.99870109558105,1318.03010106087,"0",1,6,4
14,20,1,0.445911884307861,3.99922108650208,1320.03062200546,"0",0,2,4
14,20,1,0.498009204864502,6.01511907577515,1322.04651904106,"0",2,0,4
14,20,1,0.417777061462402,7.9995391368866,1324.03094005585,"0",1,4,4
14,20,1,0.453829050064087,9.9993200302124,1326.0307199955,"0",0,4,4
14,20,1,0.3731849193573,11.9989340305328,1328.03033399582,"0",0,0,4
14,20,1,0.497612953186035,13.9988081455231,1330.03020811081,"0",1,0,4
14,20,1,0,13.9997169971466,1330.03111600876,"Reward",0,0,4
14,4,0,0.277998924255371,0.281284809112549,1336.3620300293,"0",1,3,4
14,4,0,0,0.281424999237061,1336.3621711731,"Quit",0,0,4
14,8,0,0.282855033874512,0.284739017486572,1340.68286919594,"0",2,4,4
14,8,0,0,0.284951210021973,1340.68308019638,"Quit",0,0,4
14,4,0,0.498518943786621,0.500251054763794,1345.21596002579,"0",2,0,4
14,4,0,0,0.500450134277344,1345.2161591053,"Quit",0,0,4
14,20,1,0.531692981719971,2.00037884712219,1351.24847316742,"0",2,3,4
14,20,1,0.401245832443237,4.00036382675171,1353.24845910072,"0",1,3,4
14,20,1,0.449776887893677,6.00025582313538,1355.24835109711,"0",1,0,4
14,20,1,0.410460948944092,8.00056195259094,1357.24865603447,"0",0,2,4
14,20,1,0.37593412399292,10.000599861145,1359.24869513512,"0",1,2,4
14,20,1,0.463465929031372,12.0006768703461,1361.24877214432,"0",2,1,4
14,20,1,0.497491121292114,14.0004210472107,1363.24851512909,"0",2,5,4
14,20,1,0,14.0006289482117,1363.24872207642,"Reward",0,0,4
14,8,0,0.248355150222778,0.250761985778809,1369.55062007904,"0",2,6,4
14,8,0,0,0.250975847244263,1369.55083298683,"Quit",0,0,4
14,20,1,0.444997072219849,1.99966788291931,1375.58238220215,"0",0,2,4
14,20,1,0.519713878631592,3.99999189376831,1377.58270716667,"0",1,3,4
14,20,1,0.378462076187134,6.00010085105896,1379.58281612396,"0",0,2,4
14,20,1,0.41409707069397,8.00028586387634,1381.58300018311,"0",2,2,4
14,20,1,0.481452941894531,9.99998497962952,1383.58269906044,"0",0,7,4
14,20,1,0.366661071777344,12.0001258850098,1385.58284020424,"0",0,5,4
14,20,1,0.355615139007568,14.0002999305725,1387.58301520348,"0",0,0,4
14,20,1,0,14.0005619525909,1387.58327507973,"Reward",0,0,4
14,8,1,0.443413019180298,1.99958491325378,1395.63323616982,"0",0,0,4
14,8,1,0.342391967773438,3.99957394599915,1397.63322520256,"0",0,0,4
14,8,1,0.498654127120972,6.01644206047058,1399.65009307861,"0",2,2,4
14,8,1,0.395665884017944,7.99971890449524,1401.63337016106,"0",0,6,4
14,8,1,0.425200939178467,10.0000040531158,1403.63365411758,"0",0,1,4
14,8,1,0.614645004272461,12.0163509845734,1405.65000104904,"0",2,5,4
14,8,2,0.947844982147217,14.0169279575348,1407.6505792141,"0",2,7,4
14,8,1,0,14.017187833786,1407.650837183,"Reward",0,0,4
14,4,0,0.283045053482056,0.284784078598022,1413.98605108261,"0",2,1,4
14,4,0,0,0.284981966018677,1413.98624920845,"Quit",0,0,4
14,4,0,0.349758863449097,0.351529836654663,1418.36917519569,"0",2,2,4
14,4,0,0,0.351729869842529,1418.36937499046,"Quit",0,0,4
14,20,1,0.47284197807312,1.99966883659363,1424.40063619614,"0",1,3,4
14,20,1,0.426609039306641,3.99982786178589,1426.40079522133,"0",0,6,4
14,20,1,0.630788087844849,6.0160448551178,1428.41701102257,"0",2,6,4
14,20,1,0.516700029373169,8.01682591438293,1430.41779303551,"0",2,3,4
14,20,1,0.418040037155151,10.0002689361572,1432.40123701096,"0",1,2,4
14,20,1,0.514739036560059,12.0002520084381,1434.40121912956,"0",2,1,4
14,20,1,0.416564226150513,13.9994127750397,1436.40038013458,"0",0,1,4
14,20,1,0,13.9996218681335,1436.40058803558,"Reward",0,0,4
14,4,0,0.246010065078735,0.265285015106201,1442.71718907356,"0",0,5,4
14,4,0,0,0.265424013137817,1442.71732711792,"Quit",0,0,4
14,20,1,0.464566946029663,2.01576900482178,1448.76815700531,"0",2,2,4
14,20,1,0.54759693145752,4.01590490341187,1450.76829314232,"0",2,6,4
14,20,1,0.497412919998169,6.01598691940308,1452.76837515831,"0",2,5,4
14,20,1,0.598164081573486,8.01614212989807,1454.76853108406,"0",2,7,4
14,20,1,0.404907941818237,9.99877095222473,1456.75115799904,"0",1,5,4
14,20,1,0.431684970855713,12.0160100460052,1458.76839804649,"0",2,3,4
14,20,1,0.551149129867554,13.9995241165161,1460.75191307068,"0",0,7,4
14,20,1,0,13.999785900116,1460.75217318535,"Reward",0,0,4
14,8,0,0.275693893432617,0.297078132629395,1467.09982514381,"0",0,5,4
14,8,0,0,0.297214031219482,1467.0999610424,"Quit",0,0,4
14,4,0,0.24951696395874,0.270243167877197,1471.40596413612,"0",0,3,4
14,4,0,0,0.270382165908813,1471.40610313416,"Quit",0,0,4
14,8,0,0.398818016052246,0.400686979293823,1475.83701109886,"0",2,6,4
14,8,0,0,0.400856018066406,1475.83717918396,"Quit",0,0,4
14,20,1,0.49849796295166,1.99853801727295,1481.86855912209,"0",0,1,4
14,20,1,0.798833131790161,4.0149929523468,1483.88501405716,"0",2,7,4
14,20,1,0.455128908157349,5.99876093864441,1485.86878204346,"0",1,4,4
14,20,1,0.465025186538696,7.9989378452301,1487.86896014214,"0",0,0,4
14,20,1,0.496595144271851,10.0152180194855,1489.88524007797,"0",2,4,4
14,20,1,0.37657904624939,11.9986939430237,1491.86871504784,"0",0,0,4
14,20,1,0.384360074996948,13.9989809989929,1493.86900305748,"0",1,4,4
14,20,1,0,13.9992458820343,1493.8692650795,"Reward",0,0,4
14,20,1,0.474174022674561,1.99964499473572,1501.91922807693,"0",0,6,4
14,20,1,0.485306024551392,3.99942302703857,1503.91900610924,"0",1,2,4
14,20,1,0.664075136184692,5.99953198432922,1505.9191160202,"0",1,5,4
14,20,1,0.5138840675354,8.01633501052856,1507.93591809273,"0",2,0,4
14,20,1,0.445754051208496,9.99964594841003,1509.91922903061,"0",0,0,4
14,20,1,0.473851919174194,11.9996130466461,1511.91919708252,"0",1,6,4
14,20,1,0.478876829147339,13.9993920326233,1513.91897511482,"0",1,0,4
14,20,1,0,13.9996168613434,1513.91919898987,"Reward",0,0,4
14,8,1,0.447361946105957,1.99931693077087,1521.9690182209,"0",1,4,4
14,8,1,0.460615873336792,3.99940204620361,1523.96910309792,"0",1,1,4
14,8,1,0.37242579460144,5.99941897392273,1525.96912002563,"0",1,1,4
14,8,1,0.407044887542725,7.9997079372406,1527.96941018105,"0",0,7,4
14,8,1,0.394462108612061,9.99965906143188,1529.96936011314,"0",1,6,4
14,8,1,0.563966989517212,12.0164630413055,1531.98616409302,"0",2,6,4
14,8,1,0.84840202331543,14.016471862793,1533.98617315292,"0",2,5,4
14,8,1,0,14.0166790485382,1533.98637914658,"Reward",0,0,4
14,8,0,0.263873100280762,0.267331123352051,1540.30426716805,"0",1,2,4
14,8,0,0,0.268109083175659,1540.30504417419,"Quit",0,0,4
14,4,0,0.365149974822998,0.366890907287598,1544.70392203331,"0",2,0,4
14,4,0,0,0.368211030960083,1544.70524120331,"Quit",0,0,4
14,4,0,0.265431880950928,0.267160892486572,1549.00433421135,"0",2,1,4
14,4,0,0,0.267354965209961,1549.00452804565,"Quit",0,0,4
14,20,1,0.509596824645996,1.9989058971405,1555.03615617752,"0",1,0,4
14,20,1,0.614808082580566,4.01591086387634,1557.05316019058,"0",2,3,4
14,20,1,0.377442836761475,5.99920892715454,1559.03646016121,"0",1,3,4
14,20,1,0.439159870147705,7.99927997589111,1561.03653001785,"0",0,0,4
14,20,1,0.514752149581909,9.99920797348022,1563.03645920753,"0",1,6,4
14,20,1,0.424931049346924,11.9992229938507,1565.03647398949,"0",1,7,4
14,20,1,0.573239088058472,13.9992699623108,1567.03652119637,"0",1,1,4
14,20,1,0,13.9994728565216,1567.03672218323,"Reward",0,0,4
14,4,0,0.25424599647522,0.257121086120605,1573.34446310997,"0",1,3,4
14,4,0,0,0.257823944091797,1573.34516620636,"Quit",0,0,4
14,8,1,0.515165090560913,2.01550602912903,1579.38643622398,"0",2,3,4
14,8,1,0.397719144821167,4.01569008827209,1581.38662004471,"0",2,0,4
14,8,1,0.547743082046509,6.01615715026855,1583.38708806038,"0",2,4,4
14,8,1,0.434528112411499,7.99931716918945,1585.37024712563,"0",0,2,4
14,8,1,0.356690883636475,9.99945712089539,1587.37038707733,"0",1,2,4
14,8,1,0.497513055801392,12.0162811279297,1589.38721108437,"0",2,6,4
14,8,1,0.408448934555054,13.9999730587006,1591.37090301514,"0",1,1,4
14,8,1,0,14.0002331733704,1591.37116217613,"Reward",0,0,4
14,8,2,0.601945877075195,1.99944806098938,1599.42147612572,"0",0,4,4
14,8,1,0.495122909545898,4.01592683792114,1601.43795514107,"0",2,1,4
14,8,1,0.339988946914673,5.99943590164185,1603.42146420479,"0",1,4,4
14,8,1,0.698233127593994,8.01630902290344,1605.43833804131,"0",2,4,4
14,8,1,0.43212103843689,9.99960589408875,1607.42163515091,"0",0,4,4
14,8,1,0.448831081390381,12.0165629386902,1609.43859219551,"0",2,2,4
14,8,1,0.428056001663208,14,1611.42202806473,"0",1,2,4
14,8,1,0,14.0002179145813,1611.42224502563,"Reward",0,0,4
14,4,0,0.25071907043457,0.26999306678772,1617.74324202538,"0",0,6,4
14,4,0,0,0.271239042282104,1617.7444870472,"Quit",0,0,4
14,20,1,0.482434034347534,1.99961709976196,1623.77291512489,"0",1,1,4
14,20,1,0.367701053619385,3.99976587295532,1625.77306509018,"0",1,6,4
14,20,1,0.355721950531006,5.99971508979797,1627.77301311493,"0",1,2,4
14,20,1,0.464154958724976,8.01679801940918,1629.79009604454,"0",2,0,4
14,20,1,0.413962125778198,10.0168280601501,1631.79012703896,"0",2,2,4
14,20,1,0.528126001358032,12.0000829696655,1633.7733809948,"0",1,3,4
14,20,1,0.447499990463257,13.9999120235443,1635.77321004868,"0",0,7,4
14,20,1,0,14.001247882843,1635.77454614639,"Reward",0,0,4
14,20,1,0.408066987991333,1.99939703941345,1643.82424020767,"0",0,6,4
14,20,1,0.451660871505737,3.99945998191833,1645.82430315018,"0",1,6,4
14,20,1,0.51881217956543,5.99965500831604,1647.82449817657,"0",0,0,4
14,20,1,0.401297092437744,7.99963307380676,1649.82447600365,"0",1,1,4
14,20,1,0.397907972335815,9.99965596199036,1651.82449817657,"0",0,1,4
14,20,1,0.498647928237915,12.0166139602661,1653.84145712852,"0",2,5,4
14,20,1,0.384240865707397,14.000097990036,1655.82494020462,"0",0,6,4
14,20,1,0,14.0003581047058,1655.8251991272,"Reward",0,0,4
14,20,1,0.465090036392212,2.0158851146698,1663.89188504219,"0",2,3,4
14,20,1,0.397669076919556,3.99931716918945,1665.87531709671,"0",1,3,4
14,20,1,0.575479030609131,5.99976515769958,1667.87576603889,"0",0,6,4
14,20,1,0.381415843963623,8.01661896705627,1669.892619133,"0",2,2,4
14,20,1,0.446655035018921,10.000137090683,1671.8761370182,"0",2,0,4
14,20,1,0.432681798934937,12.0000929832458,1673.87609410286,"0",0,6,4
14,20,1,0.393939018249512,14.0000751018524,1675.87607502937,"0",1,7,4
14,20,1,0,14.0002820491791,1675.87628102303,"Reward",0,0,4
14,8,2,0.648844003677368,2.01572823524475,1683.94314312935,"0",2,7,4
14,8,1,0.431615114212036,4.01584219932556,1685.94325613976,"0",2,3,4
14,8,1,0.565079927444458,6.0159330368042,1687.94334721565,"0",2,1,4
14,8,1,0.361256122589111,7.99968504905701,1689.92710018158,"0",0,7,4
14,8,1,0.44231104850769,9.99981021881104,1691.92722511292,"0",0,0,4
14,8,1,0.381462097167969,11.9996681213379,1693.92708420753,"0",0,4,4
14,8,1,0.598376989364624,14.0162990093231,1695.94371509552,"0",2,5,4
14,8,1,0,14.0176641941071,1695.94507813454,"Reward",0,0,4
14,20,1,0.420811891555786,1.99883580207825,1703.99397015572,"0",0,7,4
14,20,1,0.536792993545532,3.99895000457764,1705.9940841198,"0",0,5,4
14,20,1,0.46547794342041,6.01641893386841,1708.01155304909,"0",2,0,4
14,20,1,0.382250070571899,8.0165319442749,1710.01166605949,"0",2,3,4
14,20,1,0.398437023162842,10.0163559913635,1712.01149010658,"0",2,7,4
14,20,1,0.433905839920044,12.0000569820404,1713.99519109726,"0",1,1,4
14,20,1,0.432847023010254,13.9995818138123,1715.99471712112,"0",1,0,4
14,20,1,0,13.9997990131378,1715.99493217468,"Reward",0,0,4
10,4,0,0.525548934936523,0.545768022537231,1728.54248213768,"0",0,3,5
10,4,0,0,0.545903921127319,1728.54261803627,"Quit",0,0,5
10,8,1,0.522974967956543,1.99909400939941,1738.57989621162,"0",1,7,5
10,8,1,0.406533002853394,3.99922704696655,1740.58002710342,"0",1,7,5
10,8,1,0.465273141860962,6.01634502410889,1742.59714698792,"0",2,0,5
10,8,1,0.53073787689209,8.01640701293945,1744.59720921516,"0",2,5,5
10,8,1,0.388972997665405,9.99946594238281,1746.58026599884,"0",1,0,5
10,8,1,0,9.99968910217285,1746.58048820496,"Reward",0,0,5
10,20,1,0.381042003631592,1.99936890602112,1758.63113117218,"0",1,5,5
10,20,1,0.430849075317383,3.99978399276733,1760.63154602051,"0",0,5,5
10,20,1,0.485983848571777,5.99992895126343,1762.63169121742,"0",0,4,5
10,20,1,0.438506841659546,8.0000159740448,1764.63177919388,"0",0,0,5
10,20,1,0.576375007629395,10.0000438690186,1766.63180613518,"0",0,3,5
10,20,1,0,10.0002510547638,1766.63201212883,"Reward",0,0,5
10,4,1,0.516126871109009,1.99962615966797,1778.68261003494,"0",1,0,5
10,4,1,0.547725915908813,4.01647520065308,1780.69945907593,"0",2,7,5
10,4,1,0.403585910797119,5.99991011619568,1782.68289399147,"0",1,3,5
10,4,2,0.513811826705933,8.01673603057861,1784.6997191906,"0",2,6,5
10,4,1,0.459537982940674,10.0001800060272,1786.68316411972,"0",1,2,5
10,4,1,0,10.0003910064697,1786.68337202072,"Reward",0,0,5
10,20,2,0.439541816711426,1.99935293197632,1798.73378419876,"0",1,6,5
10,20,1,0.505842924118042,3.99919104576111,1800.73362112045,"0",1,0,5
10,20,1,0.630698919296265,6.01544690132141,1802.74987721443,"0",2,3,5
10,20,1,0.618721961975098,7.99976587295532,1804.73419713974,"0",0,5,5
10,20,1,0.501776933670044,9.99989104270935,1806.73432207108,"0",1,0,5
10,20,1,0,10.0012600421906,1806.73568916321,"Reward",0,0,5
10,8,1,0.615598201751709,2.01591181755066,1818.80152916908,"0",2,5,5
10,8,1,0.464360952377319,4.01630783081055,1820.80192399025,"0",2,6,5
10,8,1,0.881430864334106,6.01640391349792,1822.8020222187,"0",2,6,5
10,8,1,0.542107105255127,7.99957895278931,1824.7851960659,"0",0,2,5
10,8,1,0.418662071228027,9.99999094009399,1826.78560805321,"0",0,2,5
10,8,1,0,10.0002019405365,1826.78581809998,"Reward",0,0,5
10,4,0,0.245471000671387,0.2656569480896,1837.1021270752,"0",0,4,5
10,4,0,0,0.265806913375854,1837.10227608681,"Quit",0,0,5
10,20,1,0.481580018997192,1.99959993362427,1847.13663506508,"0",0,2,5
10,20,1,0.420556783676147,3.99936890602112,1849.13640499115,"0",1,3,5
10,20,1,0.39116907119751,5.99993181228638,1851.13696813583,"0",0,7,5
10,20,1,0.626991987228394,8.00001192092896,1853.13704800606,"0",1,2,5
10,20,1,0.456459045410156,10.0003688335419,1855.13740611076,"0",1,1,5
10,20,1,0,10.0006339550018,1855.13766908646,"Reward",0,0,5
10,4,1,0.615947961807251,2.00048089027405,1867.18820405006,"0",1,2,5
10,4,1,0.422513961791992,4.00020599365234,1869.18792700768,"0",0,7,5
10,4,1,0.388414144515991,6.000727891922,1871.18845009804,"0",0,3,5
10,4,1,0.388975858688354,8.00058388710022,1873.18830513954,"0",0,6,5
10,4,1,0.347457885742188,10.0006630420685,1875.18838405609,"0",0,4,5
10,4,1,0,10.0008709430695,1875.18859004974,"Reward",0,0,5
10,8,1,0.531268835067749,2.01671695709229,1887.25619101524,"0",2,4,5
10,8,1,0.487884998321533,4.00008893013,1889.23956513405,"0",0,7,5
10,8,1,0.447751045227051,6.00001406669617,1891.23948812485,"0",0,5,5
10,8,1,0.370328903198242,7.99968695640564,1893.23916101456,"0",0,3,5
10,8,1,0.581461906433105,10.0170049667358,1895.25647902489,"0",2,2,5
10,8,1,0,10.0183260440826,1895.25779819489,"Reward",0,0,5
10,20,1,0.458748817443848,1.99954605102539,1907.3073580265,"0",1,5,5
10,20,1,0.4148850440979,3.99965214729309,1909.30746507645,"0",0,6,5
10,20,1,0.426406860351562,5.99945592880249,1911.3072681427,"0",0,1,5
10,20,1,0.370348930358887,7.99989008903503,1913.30770301819,"0",1,5,5
10,20,1,0.414138078689575,9.99995303153992,1915.30776619911,"0",1,6,5
10,20,1,0,10.0002241134644,1915.30803513527,"Reward",0,0,5
10,8,1,0.507066965103149,1.99919414520264,1927.35757112503,"0",0,6,5
10,8,1,0.349324941635132,4.00041604042053,1929.35879302025,"0",0,6,5
10,8,1,0.353060007095337,6.0003399848938,1931.35871815681,"0",0,7,5
10,8,1,0.510618925094604,8.000568151474,1933.35894703865,"0",0,0,5
10,8,1,0.628079175949097,10.0004620552063,1935.35883998871,"0",0,7,5
10,8,1,0,10.0006721019745,1935.35904812813,"Reward",0,0,5
10,8,1,0.446672201156616,1.99954915046692,1947.40924406052,"0",0,6,5
10,8,1,0.664920806884766,3.99999904632568,1949.40969419479,"0",2,6,5
10,8,1,0.698294162750244,5.99946904182434,1951.40916419029,"0",2,7,5
10,8,1,0.424530982971191,8.00023007392883,1953.4099252224,"0",1,1,5
10,8,1,0.681865930557251,9.99996900558472,1955.40966415405,"0",2,5,5
10,8,1,0,10.0001780986786,1955.40987205505,"Reward",0,0,5
10,20,1,0.610054016113281,1.99885487556458,1967.46039915085,"0",1,2,5
10,20,1,0.531518936157227,3.99954891204834,1969.46109414101,"0",0,5,5
10,20,1,0.475434064865112,5.99969696998596,1971.46124219894,"0",1,0,5
10,20,1,0.462770938873291,7.99999690055847,1973.46154117584,"0",0,5,5
10,20,1,0.549318075180054,9.99947190284729,1975.46101617813,"0",0,0,5
10,20,1,0,9.99968004226685,1975.46122407913,"Reward",0,0,5
10,8,1,0.58813214302063,1.99944496154785,1987.51208615303,"0",1,4,5
10,8,1,0.464678049087524,4.01660394668579,1989.52924609184,"0",2,4,5
10,8,1,0.447649955749512,6.00001406669617,1991.51265621185,"0",1,4,5
10,8,1,0.41471004486084,7.99993205070496,1993.51257300377,"0",0,0,5
10,8,1,0.413234949111938,10.0002110004425,1995.51285219193,"0",1,4,5
10,8,1,0,10.0015289783478,1995.51416921616,"Reward",0,0,5
10,20,1,0.577230930328369,2.00032186508179,2007.56361413002,"0",1,6,5
10,20,1,0.411700963973999,4.00038695335388,2009.56367921829,"0",1,1,5
10,20,1,0.445044994354248,5.99997186660767,2011.56326317787,"0",0,0,5
10,20,1,0.615154981613159,8.00046396255493,2013.56375598907,"0",2,0,5
10,20,1,0.648386001586914,10.0009000301361,2015.56419110298,"0",2,2,5
10,20,1,0,10.0011088848114,2015.56439900398,"Reward",0,0,5
10,4,0,0.286680936813354,0.307032108306885,2025.92233204842,"0",0,1,5
10,4,0,0,0.308328151702881,2025.92362713814,"Quit",0,0,5
10,4,1,0.59900689125061,1.99919295310974,2035.94872999191,"0",1,0,5
10,4,1,0.426983833312988,3.99921202659607,2037.94875001907,"0",0,0,5
10,4,1,0.496519088745117,6.01583886146545,2039.96537613869,"0",2,1,5
10,4,1,0.369174003601074,7.99950289726257,2041.94904112816,"0",0,6,5
10,4,1,0.404803037643433,9.99952101707458,2043.94905900955,"0",0,4,5
10,4,1,0,9.99978590011597,2043.94932222366,"Reward",0,0,5
10,20,1,0.560589790344238,1.99933385848999,2055.9997382164,"0",1,4,5
10,20,1,0.480163097381592,3.99970984458923,2058.00011515617,"0",0,0,5
10,20,1,0.390825986862183,5.99949598312378,2059.99990010262,"0",1,3,5
10,20,1,0.546245098114014,7.99988698959351,2062.00029206276,"0",0,5,5
10,20,1,0.564797878265381,10.0166177749634,2064.01702308655,"0",2,6,5
10,20,1,0,10.016881942749,2064.01728415489,"Reward",0,0,5
10,8,1,0.533176898956299,1.99932312965393,2076.06756711006,"0",0,3,5
10,8,1,0.548787832260132,4.01604008674622,2078.08428406715,"0",2,6,5
10,8,1,0.383110046386719,5.99959707260132,2080.06784105301,"0",0,2,5
10,8,1,0.367868900299072,7.99995613098145,2082.06820106506,"0",0,0,5
10,8,1,0.690088987350464,10.000167131424,2084.06841111183,"0",1,0,5
10,8,1,0,10.0003759860992,2084.06861901283,"Reward",0,0,5
10,4,1,0.50930118560791,1.99937200546265,2096.11909604073,"0",0,5,5
10,4,1,0.441737174987793,3.99894404411316,2098.11866807938,"0",0,6,5
10,4,1,0.389140844345093,5.99976086616516,2100.11948513985,"0",0,6,5
10,4,1,0.394044160842896,7.99960899353027,2102.11933302879,"0",0,4,5
10,4,1,0.395282983779907,9.99971890449524,2104.11944317818,"0",0,0,5
10,4,1,0,9.99992704391479,2104.1196501255,"Reward",0,0,5
10,8,1,0.512425899505615,1.99846005439758,2116.16959500313,"0",0,7,5
10,8,1,0.397802829742432,3.99936389923096,2118.17049908638,"0",1,3,5
10,8,1,0.43312406539917,5.99954104423523,2120.17067599297,"0",0,1,5
10,8,1,0.398537158966064,7.99955010414124,2122.1706840992,"0",1,1,5
10,8,1,0.394177913665771,9.99955797195435,2124.17069220543,"0",0,6,5
10,8,1,0,9.99976897239685,2124.17090201378,"Reward",0,0,5
10,20,1,0.598184823989868,2.01592087745667,2136.23810100555,"0",2,6,5
10,20,1,0.498208999633789,4.01628279685974,2138.23846411705,"0",2,0,5
10,20,1,0.469450950622559,5.99967288970947,2140.2218542099,"0",0,5,5
10,20,1,0.462589979171753,8.01562595367432,2142.2378051281,"0",2,0,5
10,20,1,0.418442964553833,9.99967694282532,2144.2218580246,"0",0,2,5
10,20,1,0,9.99988889694214,2144.22206902504,"Reward",0,0,5
2,20,1,0.504078149795532,1.99967408180237,2162.63983917236,"0",0,2,6
2,20,1,0,1.99988603591919,2162.64004802704,"Reward",0,0,6
2,4,1,0.556414127349854,1.99937081336975,2182.69090819359,"0",1,6,6
2,4,1,0,2.00036883354187,2182.69190621376,"Reward",0,0,6
2,4,1,0.535508155822754,1.99961304664612,2202.74189305305,"0",1,6,6
2,4,1,0,2.00176596641541,2202.74404501915,"Reward",0,0,6
2,20,1,0.457574844360352,1.99970197677612,2222.79363012314,"0",0,7,6
2,20,1,0,1.99997496604919,2222.79390120506,"Reward",0,0,6
2,8,1,0.523648977279663,1.99860715866089,2242.84432411194,"0",1,5,6
2,8,1,0,1.99946808815002,2242.84518408775,"Reward",0,0,6
2,8,1,0.559939861297607,1.9996600151062,2262.89583420753,"0",0,7,6
2,8,1,0,2.00067710876465,2262.8968501091,"Reward",0,0,6
2,4,1,0.715878009796143,2.0160698890686,2282.96365404129,"0",2,7,6
2,4,1,0,2.01628088951111,2282.96386504173,"Reward",0,0,6
2,8,1,0.616492986679077,2.00019884109497,2303.01496815681,"0",2,3,6
2,8,1,0,2.00122785568237,2303.01599621773,"Reward",0,0,6
2,20,1,0.532963037490845,1.99957609176636,2323.06635403633,"0",1,1,6
2,20,1,0,2.0006730556488,2323.06744909286,"Reward",0,0,6
2,20,1,0.464253187179565,1.99956202507019,2343.11762905121,"0",1,5,6
2,20,1,0,2.00089502334595,2343.11896014214,"Reward",0,0,6
2,8,1,0.597962856292725,2.01595592498779,2363.18558716774,"0",2,3,6
2,8,1,0,2.01622295379639,2363.18585109711,"Reward",0,0,6
2,4,1,0.899610042572021,2.00003099441528,2383.23653101921,"0",2,1,6
2,4,1,0,2.00216507911682,2383.23866415024,"Reward",0,0,6
2,20,1,0.497936964035034,2.01613593101501,2403.30471515656,"0",2,5,6
2,20,1,0,2.01640105247498,2403.30497813225,"Reward",0,0,6
2,8,1,0.598215103149414,2.01603984832764,2423.37268209457,"0",2,1,6
2,8,1,0,2.01708698272705,2423.37372708321,"Reward",0,0,6
2,8,1,0.735944032669067,1.99971985816956,2443.42404317856,"0",0,4,6
2,8,1,0,2.00185894966125,2443.42618107796,"Reward",0,0,6
2,4,1,0.914775133132935,2.01592493057251,2463.49160599709,"0",2,5,6
2,4,1,0,2.01613402366638,2463.49181413651,"Reward",0,0,6
2,4,1,0.494937896728516,1.99989104270935,2483.54315018654,"0",1,2,6
2,4,1,0,2.00016307830811,2483.54342103004,"Reward",0,0,6
2,20,1,0.498861074447632,2.01574611663818,2503.61076712608,"0",2,2,6
2,20,1,0,2.01675701141357,2503.61177706718,"Reward",0,0,6
2,8,2,0.614042043685913,2.0157790184021,2523.67862010002,"0",2,7,6
2,8,2,0,2.0159809589386,2523.67882108688,"Forced travel",0,0,6
2,8,1,0.51317286491394,1.99897503852844,2541.71335101128,"0",0,2,6
2,8,1,0,2.00004696846008,2541.71442103386,"Reward",0,0,6
2,4,1,0.647834062576294,2.01494097709656,2561.78021216393,"0",2,7,6
2,4,1,0,2.01595497131348,2561.78122520447,"Reward",0,0,6
