"Handling","Reward","Choice","Task.RT","Choice.RT","Experiment.Time","Trial.Outcome","Task.Type","Task.Setup","Block"
2,4,1,0.582703113555908,1.99861621856689,9.05149412155151,"0",1,7,1
2,4,1,0,2.00072002410889,9.0535991191864,"Reward",0,0,1
2,20,1,0.900201082229614,1.99879002571106,29.1019570827484,"0",1,6,1
2,20,1,0,1.99900102615356,29.1021671295166,"Reward",0,0,1
2,8,1,0.746734142303467,2.01577997207642,49.1690001487732,"0",2,2,1
2,8,1,0,2.01709914207458,49.1703181266785,"Reward",0,0,1
2,20,2,0.99765419960022,2.01648712158203,69.2527101039886,"0",2,5,1
2,20,2,0,2.01754117012024,69.2537641525269,"Forced travel",0,0,1
2,8,1,0.615253925323486,2.01551699638367,87.3019661903381,"0",2,1,1
2,8,1,0,2.01573014259338,87.302178144455,"Reward",0,0,1
2,4,1,0.649737119674683,1.99890398979187,107.35190820694,"0",0,2,1
2,4,1,0,1.99911403656006,107.352117061615,"Reward",0,0,1
2,20,1,0.667450904846191,1.99934697151184,127.402070045471,"0",1,7,1
2,20,1,0,2.00041794776917,127.403140068054,"Reward",0,0,1
2,8,1,0.856169939041138,1.99912810325623,147.452068090439,"0",1,6,1
2,8,1,0,1.99933791160583,147.452277183533,"Reward",0,0,1
2,4,1,0.748754024505615,1.9985179901123,167.501760005951,"0",0,7,1
2,4,1,0,1.99872899055481,167.501970052719,"Reward",0,0,1
2,8,2,0.996994018554688,2.01579093933105,187.568744182587,"0",2,5,1
2,8,2,0,2.01684403419495,187.569796085358,"Forced travel",0,0,1
2,4,1,0.81321382522583,1.99892497062683,205.601994991302,"0",1,0,1
2,4,1,0,1.99913692474365,205.602205038071,"Reward",0,0,1
2,20,2,0.997069120407104,2.01580595970154,225.668587207794,"0",2,4,1
2,20,2,0,2.0169141292572,225.669695138931,"Forced travel",0,0,1
2,8,2,0.997314929962158,2.01524519920349,243.718192100525,"0",2,6,1
2,8,2,0,2.01541209220886,243.718358039856,"Forced travel",0,0,1
2,4,1,0.7427659034729,1.99933981895447,261.752024173737,"0",1,0,1
2,4,1,0,2.00038886070251,261.753072023392,"Reward",0,0,1
2,20,1,0.565572023391724,1.99902987480164,281.802043199539,"0",1,7,1
2,20,1,0,2.00009298324585,281.803105115891,"Reward",0,0,1
2,20,1,0.801361799240112,1.99878692626953,301.851811170578,"0",0,7,1
2,20,1,0,1.99900603294373,301.852029085159,"Reward",0,0,1
2,8,1,0.72369909286499,1.99845504760742,321.901380062103,"0",0,4,1
2,8,1,0,1.99979496002197,321.902719020844,"Reward",0,0,1
2,4,1,0.87826681137085,1.99902105331421,341.951943159103,"0",1,6,1
2,4,1,0,1.99923896789551,341.952161073685,"Reward",0,0,1
2,4,1,0.764595031738281,2.01494908332825,362.017878055573,"0",2,0,1
2,4,1,0,2.01518297195435,362.018110990524,"Reward",0,0,1
2,20,2,0.997114896774292,2.01593208312988,382.08544421196,"0",2,7,1
2,20,2,0,2.01703715324402,382.086548089981,"Forced travel",0,0,1
2,8,1,0.725480079650879,1.99897313117981,400.118483066559,"0",1,2,1
2,8,1,0,2.00002408027649,400.119533061981,"Reward",0,0,1
2,8,1,0.660974025726318,1.99979782104492,420.168521165848,"0",0,4,1
2,8,1,0,2.00000786781311,420.168730020523,"Reward",0,0,1
10,4,2,0.997103929519653,2.01601219177246,475.302049160004,"0",2,1,2
10,4,1,0.871623039245605,3.9984610080719,477.284499168396,"0",0,2,2
10,4,1,0.667302131652832,5.99913096427917,479.285169124603,"0",0,6,2
10,4,1,0.823457956314087,7.99891805648804,481.284957170486,"0",0,4,2
10,4,1,0.864904880523682,10.0157580375671,483.301796197891,"0",2,2,2
10,4,1,0,10.0159640312195,483.302000999451,"Reward",0,0,2
10,8,1,0.614099979400635,1.99913907051086,495.35168504715,"0",0,1,2
10,8,1,0.748897075653076,3.99910092353821,497.351647138596,"0",0,7,2
10,8,1,0.781219005584717,6.0158839225769,499.36842918396,"0",2,3,2
10,8,1,0.664541959762573,8.01587295532227,501.36841917038,"0",2,5,2
10,8,1,0.460608959197998,9.99920606613159,503.351752996445,"0",0,2,2
10,8,1,0,9.9994170665741,503.351962089539,"Reward",0,0,2
10,20,1,0.576874971389771,1.99894690513611,515.401767015457,"0",0,1,2
10,20,1,0.463815927505493,3.99892592430115,517.401746034622,"0",1,5,2
10,20,1,0.373363971710205,5.99899291992188,519.401813030243,"0",1,5,2
10,20,1,0.383469820022583,7.99917078018188,521.401991128922,"0",1,7,2
10,20,2,0.996499061584473,10.016254901886,523.419074058533,"0",2,5,2
10,20,1,0,10.0164589881897,523.419278144836,"Reward",0,0,2
10,20,1,0.385931015014648,1.99931812286377,535.468496084213,"0",1,5,2
10,20,1,0.592370986938477,3.99920797348022,537.468386173248,"0",1,1,2
10,20,1,0.4703528881073,5.99898195266724,539.468159198761,"0",0,6,2
10,20,1,0.378781080245972,7.99889707565308,541.468075037003,"0",0,4,2
10,20,1,0.678503036499023,9.99914002418518,543.46831703186,"0",1,2,2
10,20,1,0,9.99935293197632,543.468528985977,"Reward",0,0,2
10,8,1,0.59610915184021,1.99899697303772,555.518396139145,"0",0,7,2
10,8,1,0.660346031188965,3.99900317192078,557.518401145935,"0",0,5,2
10,8,1,0.504467964172363,5.99869203567505,559.518091201782,"0",0,1,2
10,8,2,0.997101068496704,8.01567101478577,561.535070180893,"0",2,5,2
10,8,1,0.591363906860352,9.99890303611755,563.518302202225,"0",0,1,2
10,8,1,0,9.99911308288574,563.5185110569,"Reward",0,0,2
10,4,1,0.728692054748535,1.9996349811554,575.568076133728,"0",0,3,2
10,4,1,0.506256103515625,3.99992609024048,577.568367004395,"0",0,3,2
10,4,2,0.963994026184082,5.99976706504822,579.568207979202,"0",2,4,2
10,4,1,0.715188980102539,7.99966311454773,581.568104028702,"0",2,2,2
10,4,1,0.957313060760498,9.99991798400879,583.568359136581,"0",1,7,2
10,4,1,0,10.0001261234283,583.568566083908,"Reward",0,0,2
10,8,1,0.915569067001343,2.01580119132996,595.635049104691,"0",2,4,2
10,8,1,0.723974943161011,4.0157949924469,597.635043144226,"0",0,4,2
10,8,1,0.549217939376831,5.99909520149231,599.618343114853,"0",0,7,2
10,8,1,0.555244922637939,7.99882507324219,601.618072986603,"0",0,1,2
10,8,2,0.99730110168457,10.0159950256348,603.635241985321,"0",2,2,2
10,8,1,0,10.0162019729614,603.635449171066,"Reward",0,0,2
10,20,1,0.684246063232422,1.99827790260315,615.684710025787,"0",0,7,2
10,20,2,0.813022136688232,4.01528787612915,617.701719999313,"0",2,7,2
10,20,2,0.996807813644409,6.01517581939697,619.701608181,"0",2,6,2
10,20,2,0,6.01537299156189,619.701804161072,"Forced travel",0,0,2
10,20,1,0.64833402633667,1.99923801422119,629.734969139099,"0",1,1,2
10,20,1,0.470741987228394,3.99888801574707,631.734620094299,"0",0,6,2
10,20,1,0.397330045700073,5.99921894073486,633.734951019287,"0",1,7,2
10,20,2,0.931204080581665,8.01592397689819,635.75165605545,"0",2,6,2
10,20,1,0.880981922149658,10.015655040741,637.751387119293,"0",2,2,2
10,20,1,0,10.0166778564453,637.752408981323,"Reward",0,0,2
10,4,1,0.715574979782104,2.01629114151001,649.818684101105,"0",2,0,2
10,4,1,0.730695009231567,3.99925017356873,651.801644086838,"0",1,4,2
10,4,1,0.407222032546997,5.99892616271973,653.801320075989,"0",0,2,2
10,4,1,0.360370874404907,7.99928903579712,655.801681995392,"0",0,2,2
10,4,1,0.51888108253479,9.99896502494812,657.801359176636,"0",0,1,2
10,4,1,0,10.0002870559692,657.80267906189,"Reward",0,0,2
10,8,2,0.997042894363403,2.01607704162598,669.868689060211,"0",2,5,2
10,8,1,0.0122749805450439,4.01504111289978,671.867654085159,"0",2,2,2
10,8,1,0.634193181991577,5.99925398826599,673.851867198944,"0",1,1,2
10,8,1,0.490407943725586,7.9987530708313,675.851366043091,"0",0,4,2
10,8,2,0.81378698348999,10.0156979560852,677.868311166763,"0",2,7,2
10,8,2,0,10.0159080028534,677.868520021439,"Forced travel",0,0,2
10,4,1,0.447621822357178,1.99915409088135,687.901694059372,"0",0,1,2
10,4,1,0.424172878265381,3.9987690448761,689.90131020546,"0",0,6,2
10,4,1,0.674338817596436,5.99910998344421,691.901651144028,"0",1,0,2
10,4,1,0.479158163070679,7.99907898902893,693.901620149612,"0",1,7,2
10,4,1,0.480936050415039,9.99906396865845,695.901605129242,"0",1,3,2
10,4,1,0,9.99927496910095,695.90181517601,"Reward",0,0,2
10,8,1,0.552155017852783,1.99896502494812,707.951606035233,"0",0,3,2
10,8,1,0.49370002746582,3.99869203567505,709.951333045959,"0",0,6,2
10,8,1,0.423984050750732,5.99850487709045,711.951146125793,"0",0,2,2
10,8,1,0.482424020767212,7.99895811080933,713.951598167419,"0",1,5,2
10,8,1,0.425318002700806,9.99892997741699,715.951570987701,"0",1,3,2
10,8,1,0,9.99914002418518,715.951780080795,"Reward",0,0,2
10,20,1,0.522921085357666,1.99869799613953,728.001273155212,"0",0,3,2
10,20,1,0.864080905914307,4.0156581401825,730.018231153488,"0",2,3,2
10,20,1,0.831779003143311,6.01567196846008,732.018244981766,"0",2,5,2
10,20,1,0.495552062988281,7.99900102615356,734.001574993134,"0",0,3,2
10,20,1,0.616578102111816,9.99900507926941,736.001579999924,"0",1,0,2
10,20,1,0,9.99921298027039,736.001785993576,"Reward",0,0,2
10,4,1,0.624697923660278,1.99871397018433,748.05166220665,"0",1,5,2
10,4,1,0.824686050415039,3.99862504005432,750.051573038101,"0",0,7,2
10,4,1,0.96371603012085,6.01532006263733,752.068268060684,"0",2,6,2
10,4,1,0.813388109207153,7.99865388870239,754.051602125168,"0",0,4,2
10,4,1,0.66792893409729,9.99894595146179,756.051894187927,"0",0,7,2
10,4,1,0,9.99915790557861,756.05210518837,"Reward",0,0,2
10,4,1,0.713716983795166,1.99905800819397,768.101572036743,"0",1,1,2
10,4,1,0.504220008850098,3.9989218711853,770.101437091827,"0",1,4,2
10,4,1,0.364495038986206,5.99933385848999,772.101847171783,"0",1,4,2
10,4,1,0.360181093215942,7.99906992912292,774.101584196091,"0",1,3,2
10,4,1,0.35725998878479,9.99910092353821,776.101615190506,"0",1,4,2
10,4,1,0,9.99931001663208,776.101823091507,"Reward",0,0,2
10,20,1,0.637248039245605,1.9990599155426,788.151501178741,"0",1,1,2
10,20,1,0.571228981018066,3.99910688400269,790.151547193527,"0",1,0,2
10,20,1,0.679131984710693,6.01551604270935,792.16795706749,"0",2,2,2
10,20,1,0.580358982086182,7.99884104728699,794.151281118393,"0",1,1,2
10,20,1,0.47829008102417,9.99916791915894,796.151607990265,"0",0,1,2
10,20,1,0,9.99937605857849,796.151816129684,"Reward",0,0,2
10,8,2,0.898712873458862,2.01570987701416,808.218189001083,"0",2,6,2
10,8,1,0.997655153274536,4.01539993286133,810.217879056931,"0",2,0,2
10,8,1,0.685385942459106,5.99909377098083,812.201573133469,"0",0,5,2
10,8,2,0.996754884719849,8.01603889465332,814.218518018723,"0",2,6,2
10,8,2,0,8.01623892784119,814.218717098236,"Forced travel",0,0,2
10,20,1,0.543812036514282,1.99941492080688,824.251752138138,"0",0,4,2
10,20,1,0.83112096786499,4.0158360004425,826.268171072006,"0",2,2,2
10,20,1,0.674062967300415,5.99886894226074,828.251205205917,"0",1,6,2
10,20,1,0.682271003723145,8.01577591896057,830.268112182617,"0",2,3,2
10,20,1,0.532541990280151,9.99913287162781,832.251469135284,"0",0,0,2
10,20,1,0,9.99934506416321,832.251680135727,"Reward",0,0,2
10,8,2,0.998081922531128,2.01650309562683,844.318150043488,"0",2,7,2
10,8,1,0.981005907058716,3.99988603591919,846.301534175873,"0",2,4,2
10,8,1,0.5384840965271,6.00012803077698,848.301776170731,"0",0,2,2
10,8,1,0.658852815628052,7.99983716011047,850.301485061646,"0",1,2,2
10,8,1,0.697803020477295,10.0165200233459,852.3181681633,"0",2,1,2
10,8,1,0,10.0167281627655,852.318375110626,"Reward",0,0,2
10,4,2,0.465574979782104,1.9989640712738,864.36814904213,"0",0,7,2
10,4,1,0.516889095306396,3.99894905090332,866.368134021759,"0",1,3,2
10,4,1,0.39350700378418,5.99901008605957,868.368195056915,"0",1,5,2
10,4,1,0.524868965148926,7.99909400939941,870.368278980255,"0",1,2,2
10,4,1,0.575814962387085,9.99861097335815,872.367796182632,"0",0,2,2
10,4,1,0,9.99881410598755,872.367998123169,"Reward",0,0,2
10,8,1,0.650977849960327,1.99869513511658,884.417828083038,"0",0,7,2
10,8,1,0.379571914672852,3.99872016906738,886.417853116989,"0",0,7,2
10,8,1,0.709694862365723,5.99890303611755,888.418037176132,"0",0,5,2
10,8,1,0.571526050567627,7.99853205680847,890.41766500473,"0",0,1,2
10,8,1,0.530205011367798,9.99870300292969,892.41783618927,"0",0,2,2
10,8,1,0,9.9989161491394,892.418048143387,"Reward",0,0,2
14,4,1,0.811574935913086,1.99866890907288,913.918160200119,"0",0,7,3
14,4,1,0.496384143829346,3.99868583679199,915.918178081512,"0",1,7,3
14,4,1,0.781393051147461,6.01530003547668,917.934792041779,"0",2,2,3
14,4,1,0.756626844406128,7.99830102920532,919.917792081833,"0",1,2,3
14,4,1,0.748729944229126,10.0153000354767,921.934791088104,"0",2,2,3
14,4,1,0.681667804718018,12.0152339935303,923.934725046158,"0",2,1,3
14,4,1,0.465986013412476,13.9984169006348,925.917908191681,"0",1,5,3
14,4,1,0,13.9997310638428,925.919221162796,"Reward",0,0,3
14,8,1,0.76511287689209,2.01586985588074,933.984767198563,"0",2,1,3
14,8,1,0.677344083786011,3.9991888999939,935.968086004257,"0",0,7,3
14,8,1,0.433855056762695,5.99916887283325,937.968066215515,"0",1,7,3
14,8,1,0.630923986434937,8.01619386672974,939.985091209412,"0",2,2,3
14,8,1,0.4579918384552,9.99943995475769,941.968337059021,"0",1,7,3
14,8,1,0.400593042373657,11.9992258548737,943.968123197556,"0",1,5,3
14,8,1,0.516045808792114,13.9991798400879,945.968078136444,"0",0,0,3
14,8,1,0,13.9993908405304,945.968286991119,"Reward",0,0,3
14,4,1,0.630190134048462,1.99965310096741,954.017821073532,"0",0,4,3
14,4,1,0.44185996055603,3.9995379447937,956.017706155777,"0",0,6,3
14,4,1,0.731155157089233,6.0166130065918,958.034780979156,"0",2,1,3
14,4,1,0.698219776153564,8.01654505729675,960.034713029861,"0",2,5,3
14,4,2,0.764542102813721,10.0165641307831,962.034732103348,"0",2,4,3
14,4,1,0.703797101974487,11.9996769428253,964.017844200134,"0",1,2,3
14,4,1,0.460785150527954,13.9995601177216,966.017728090286,"0",0,1,3
14,4,1,0,13.9997699260712,966.01793718338,"Reward",0,0,3
14,20,1,0.623628854751587,2.00005197525024,974.068084001541,"0",0,3,3
14,20,2,0.995511054992676,4.00005006790161,976.068081140518,"0",2,6,3
14,20,1,0.542395114898682,5.99973797798157,978.067770004272,"0",0,4,3
14,20,1,0.550140857696533,7.99972105026245,980.067753076553,"0",0,5,3
14,20,1,0.737207889556885,9.99999904632568,982.068031072617,"0",1,6,3
14,20,1,0.499002933502197,11.999990940094,984.068023204803,"0",0,4,3
14,20,1,0.375143051147461,14.0000019073486,986.068034172058,"0",1,5,3
14,20,1,0,14.0013289451599,986.069359064102,"Reward",0,0,3
14,20,1,0.731877088546753,2.01562905311584,994.134705066681,"0",2,3,3
14,20,2,0.513884782791138,3.99903893470764,996.118115186691,"0",0,7,3
14,20,1,0.68153190612793,6.01580500602722,998.134881019592,"0",2,4,3
14,20,1,0.480787038803101,7.99899697303772,1000.1180729866,"0",0,4,3
14,20,1,0.474595785140991,9.99865889549255,1002.11773514748,"0",0,2,3
14,20,1,0.445837020874023,11.998939037323,1004.11801409721,"0",1,7,3
14,20,1,0.594576835632324,13.9988379478455,1006.11791419983,"0",0,3,3
14,20,1,0,13.9990439414978,1006.11811900139,"Reward",0,0,3
14,8,1,0.748791933059692,2.01594305038452,1014.18472504616,"0",2,3,3
14,8,1,0.522627830505371,3.99926996231079,1016.1680521965,"0",0,1,3
14,8,1,0.442919015884399,5.9994580745697,1018.16824007034,"0",0,4,3
14,8,1,0.539466857910156,7.99923706054688,1020.16801905632,"0",0,0,3
14,8,1,0.664985179901123,10.0159261226654,1022.18470811844,"0",2,5,3
14,8,1,0.565985918045044,11.9992740154266,1024.1680560112,"0",0,4,3
14,8,1,0.614386081695557,14.0163218975067,1026.1851041317,"0",2,0,3
14,8,1,0,14.0165309906006,1026.1853120327,"Reward",0,0,3
14,4,1,0.765694856643677,2.01582503318787,1034.25110912323,"0",2,7,3
14,4,1,0.53020715713501,3.99942302703857,1036.23470616341,"0",0,1,3
14,4,1,0.434064149856567,5.9993999004364,1038.23468399048,"0",1,5,3
14,4,1,0.450776100158691,7.99930500984192,1040.23458909988,"0",0,4,3
14,4,1,0.530988931655884,10.0160830020905,1042.25136709213,"0",2,2,3
14,4,1,0.616523027420044,11.9993748664856,1044.23465919495,"0",0,5,3
14,4,1,0.563214063644409,13.9997010231018,1046.23498511314,"0",0,1,3
14,4,1,0,13.9999098777771,1046.23519301414,"Reward",0,0,3
14,8,1,0.67995285987854,2.01593208312988,1054.30163121223,"0",2,4,3
14,8,1,0.681555986404419,4.0153660774231,1056.3010661602,"0",2,4,3
14,8,1,0.761259078979492,5.99898099899292,1058.28467917442,"0",1,0,3
14,8,1,0.697065114974976,8.01567816734314,1060.30137705803,"0",2,5,3
14,8,1,0.564985990524292,10.0156462192535,1062.30134510994,"0",2,7,3
14,8,1,0.564768075942993,12.0158262252808,1064.30152511597,"0",2,4,3
14,8,1,0.531342029571533,14.015702009201,1066.30140113831,"0",2,7,3
14,8,1,0,14.0159130096436,1066.30161118507,"Reward",0,0,3
14,20,1,0.529486179351807,2.00027894973755,1074.35153913498,"0",0,1,3
14,20,1,0.62977409362793,4.00004291534424,1076.35130214691,"0",2,1,3
14,20,1,0.670676946640015,6.00003910064697,1078.3512980938,"0",1,2,3
14,20,1,0.498323917388916,8.00011801719666,1080.35137605667,"0",2,2,3
14,20,1,0.680417060852051,10.0000739097595,1082.35133218765,"0",2,7,3
14,20,1,0.499650001525879,11.9997940063477,1084.3510529995,"0",0,6,3
14,20,1,0.531249046325684,13.9997730255127,1086.35103201866,"0",2,0,3
14,20,1,0,14.0000069141388,1086.35126519203,"Reward",0,0,3
14,4,2,0.463508129119873,1.99943208694458,1094.4013440609,"0",1,6,3
14,4,1,0.712479829788208,4.01661014556885,1096.4185230732,"0",2,4,3
14,4,1,0.418383836746216,5.99935102462769,1098.40126299858,"0",0,2,3
14,4,1,0.427592039108276,7.99884510040283,1100.40075707436,"0",0,3,3
14,4,1,0.631856203079224,9.99940204620361,1102.40131402016,"0",1,6,3
14,4,2,0.947510957717896,12.0160479545593,1104.41796016693,"0",2,2,3
14,4,2,0,12.0162510871887,1104.41816210747,"Forced travel",0,0,3
14,8,1,0.582551956176758,1.99921584129333,1110.4512732029,"0",1,4,3
14,8,1,0.457015037536621,3.9994478225708,1112.45150613785,"0",0,0,3
14,8,2,0.831408023834229,6.01606488227844,1114.46812200546,"0",2,3,3
14,8,1,0.687478065490723,7.9992618560791,1116.45131802559,"0",1,1,3
14,8,1,0.498027086257935,9.99924778938293,1118.45130515099,"0",1,5,3
14,8,1,0.593244075775146,11.9988667964935,1120.4509241581,"0",0,5,3
14,8,1,0.423795938491821,13.9992039203644,1122.45126104355,"0",1,3,3
14,8,1,0,13.9994099140167,1122.45146608353,"Reward",0,0,3
14,20,1,0.490546941757202,1.99905014038086,1130.5013051033,"0",0,6,3
14,20,1,0.781404972076416,4.01571393013,1132.51796913147,"0",2,4,3
14,20,1,0.68165111541748,6.01571893692017,1134.51797413826,"0",2,4,3
14,20,1,0.709403038024902,7.9989960193634,1136.50125098228,"0",0,5,3
14,20,1,0.742360830307007,9.99903512001038,1138.50128912926,"0",1,6,3
14,20,1,0.831137180328369,12.0158700942993,1140.51812505722,"0",2,7,3
14,20,1,0.89224100112915,13.9987499713898,1142.50100517273,"0",1,6,3
14,20,1,0,13.9989609718323,1142.50121498108,"Reward",0,0,3
14,20,1,0.464409112930298,1.9989800453186,1150.55124306679,"0",0,6,3
14,20,1,0.524158954620361,3.99866890907288,1152.55093121529,"0",0,0,3
14,20,1,0.681360960006714,6.01564908027649,1154.56791210175,"0",2,3,3
14,20,1,0.677826166152954,7.99907994270325,1156.55134320259,"0",1,4,3
14,20,1,0.373719930648804,9.99909400939941,1158.55135703087,"0",1,3,3
14,20,1,0.43206000328064,11.9989759922028,1160.55123901367,"0",1,5,3
14,20,1,0.540437936782837,13.9990060329437,1162.55126905441,"0",1,2,3
14,20,1,0,13.9992160797119,1162.55147814751,"Reward",0,0,3
14,8,1,0.768121004104614,1.99891090393066,1170.60121917725,"0",1,0,3
14,8,1,0.452735900878906,3.9986400604248,1172.60094809532,"0",0,6,3
14,8,1,0.340746879577637,5.99866700172424,1174.60097503662,"0",0,6,3
14,8,1,0.731961011886597,8.01573204994202,1176.61804008484,"0",2,1,3
14,8,1,0.582315921783447,9.99927401542664,1178.60158205032,"0",1,6,3
14,8,1,0.596916913986206,12.015291929245,1180.61760020256,"0",2,0,3
14,8,1,0.670567035675049,13.9989809989929,1182.60128808022,"0",1,3,3
14,8,1,0,13.9991919994354,1182.60149908066,"Reward",0,0,3
14,8,1,0.698713779449463,2.01630806922913,1190.6684319973,"0",2,6,3
14,8,1,0.441425800323486,3.99895405769348,1192.65107798576,"0",1,5,3
14,8,1,0.544972896575928,5.99909806251526,1194.65122199059,"0",0,3,3
14,8,1,0.591785907745361,7.99918007850647,1196.65130400658,"0",0,1,3
14,8,1,0.516453981399536,9.99908399581909,1198.65120816231,"0",1,4,3
14,8,1,0.780901908874512,12.0158090591431,1200.66793298721,"0",2,5,3
14,8,1,0.503680944442749,13.9990990161896,1202.65122318268,"0",0,3,3
14,8,1,0,13.9993071556091,1202.65143013,"Reward",0,0,3
14,20,1,0.476930856704712,1.99917697906494,1210.70130705833,"0",1,7,3
14,20,1,0.382839202880859,3.99911093711853,1212.70124101639,"0",1,3,3
14,20,1,0.388025045394897,5.99907398223877,1214.70120406151,"0",1,7,3
14,20,1,0.831024169921875,8.01571989059448,1216.71785020828,"0",2,5,3
14,20,1,0.614908933639526,10.0158479213715,1218.71797800064,"0",2,0,3
14,20,1,0.591329097747803,11.998507976532,1220.7006380558,"0",1,2,3
14,20,1,0.532183885574341,14.0156259536743,1222.71775603294,"0",2,0,3
14,20,1,0,14.0158059597015,1222.7179350853,"Reward",0,0,3
14,4,1,0.569199800491333,1.999027967453,1230.81790304184,"0",0,0,3
14,4,1,0.408518075942993,3.99873900413513,1232.81761407852,"0",0,0,3
14,4,1,0.772166013717651,5.99861693382263,1234.81749200821,"0",0,7,3
14,4,1,0.71285605430603,7.99869394302368,1236.81756901741,"0",0,4,3
14,4,1,0.614493846893311,9.998615026474,1238.81749010086,"0",0,2,3
14,4,1,0.802634954452515,11.9994838237762,1240.81835913658,"0",1,6,3
14,4,1,0.598433017730713,14.0158948898315,1242.83477020264,"0",2,3,3
14,4,1,0,14.0161068439484,1242.83498120308,"Reward",0,0,3
14,4,1,0.782709836959839,1.99997591972351,1250.88446712494,"0",2,4,3
14,4,1,0.458566904067993,4.00001692771912,1252.88450813293,"0",1,3,3
14,4,1,0.485584020614624,5.99974703788757,1254.88423800468,"0",0,4,3
14,4,1,0.581693172454834,8.00045299530029,1256.88494300842,"0",2,5,3
14,4,1,0.667943954467773,10.0000360012054,1258.88452720642,"0",1,2,3
14,4,1,0.45932412147522,12.0000500679016,1260.8845410347,"0",0,4,3
14,4,1,0.389374971389771,14.0002460479736,1262.88473820686,"0",0,0,3
14,4,1,0,14.0005080699921,1262.88499808311,"Reward",0,0,3
14,20,1,0.542171001434326,1.99904799461365,1270.93449902534,"0",1,2,3
14,20,1,0.40971302986145,3.99917101860046,1272.93462204933,"0",1,0,3
14,20,1,0.451061010360718,5.9982750415802,1274.93372607231,"0",0,0,3
14,20,1,0.664767026901245,8.01577401161194,1276.95122504234,"0",2,1,3
14,20,1,0.689526081085205,9.99944686889648,1278.93489813805,"0",1,5,3
14,20,1,0.652377843856812,11.9990708827972,1280.93452215195,"0",0,3,3
14,20,1,0.765260934829712,14.0157730579376,1282.95122408867,"0",2,5,3
14,20,1,0,14.0159809589386,1282.951431036,"Reward",0,0,3
14,8,1,0.767442941665649,1.99939203262329,1291.00132107735,"0",1,6,3
14,8,1,0.489111185073853,3.99880194664001,1293.00073099136,"0",1,6,3
14,8,1,0.698433876037598,6.01563191413879,1295.01756119728,"0",2,0,3
14,8,2,0.997383117675781,8.01606297492981,1297.01799201965,"0",2,3,3
14,8,1,0.559632062911987,9.99939799308777,1299.00132608414,"0",1,6,3
14,8,1,0.597800970077515,12.0159878730774,1301.01791715622,"0",2,2,3
14,8,1,0.581670045852661,14.015928030014,1303.01785707474,"0",2,5,3
14,8,1,0,14.0161390304565,1303.01806712151,"Reward",0,0,3
14,4,1,0.643705129623413,1.9989960193634,1311.06784820557,"0",1,0,3
14,4,1,0.731539964675903,4.01547598838806,1313.08432817459,"0",2,6,3
14,4,1,0.49540376663208,5.99923396110535,1315.06808614731,"0",1,7,3
14,4,1,0.597854852676392,8.01564598083496,1317.08449816704,"0",2,7,3
14,4,1,0.581501960754395,10.0151810646057,1319.08403301239,"0",2,0,3
14,4,1,0.475726127624512,11.9989681243896,1321.0678191185,"0",1,5,3
14,4,1,0.483722925186157,13.9989750385284,1323.06782698631,"0",0,0,3
14,4,1,0,13.9991850852966,1323.06803607941,"Reward",0,0,3
2,8,1,0.870141983032227,1.99956202507019,1388.90112400055,"0",0,3,4
2,8,1,0,2.00057005882263,1388.90213108063,"Reward",0,0,4
2,8,0,0.157769918441772,0.161149978637695,1407.11354398727,"0",1,5,4
2,8,0,0,0.162406206130981,1407.11480021477,"Quit",0,0,4
2,20,1,0.615752935409546,1.99925017356873,1425.15126204491,"0",0,4,4
2,20,1,0,2.00143814086914,1425.15344715118,"Reward",0,0,4
2,4,1,0.923901081085205,1.99944591522217,1445.2013502121,"0",0,3,4
2,4,1,0,1.99965500831604,1445.20155715942,"Reward",0,0,4
2,4,2,0.997236967086792,2.01575803756714,1465.2677052021,"0",2,4,4
2,4,2,0,2.0167510509491,1465.26869702339,"Forced travel",0,0,4
2,20,1,0.680644035339355,1.99903893470764,1483.30087018013,"0",1,6,4
2,20,1,0,2.0007050037384,1483.30253601074,"Reward",0,0,4
2,8,1,0.61682915687561,1.99977397918701,1503.35097408295,"0",0,4,4
2,8,1,0,1.99998092651367,1503.3511800766,"Reward",0,0,4
2,8,1,0.666604042053223,1.9993109703064,1523.40127110481,"0",1,6,4
2,8,1,0,2.00036096572876,1523.40231919289,"Reward",0,0,4
2,4,2,0.948700904846191,2.01567792892456,1543.46757602692,"0",2,2,4
2,4,2,0,2.01587891578674,1543.4677760601,"Forced travel",0,0,4
2,4,0,0.190623998641968,0.195060014724731,1559.69668507576,"0",1,4,4
2,4,0,0,0.19519305229187,1559.69681811333,"Quit",0,0,4
2,20,1,0.832298994064331,2.01591992378235,1577.75088620186,"0",2,5,4
2,20,1,0,2.01692795753479,1577.75189304352,"Reward",0,0,4
2,20,1,0.622848987579346,1.99922704696655,1597.80110001564,"0",1,0,4
2,20,1,0,2.00025200843811,1597.80212306976,"Reward",0,0,4
2,8,1,0.58277416229248,1.99968099594116,1617.85084700584,"0",1,5,4
2,8,1,0,1.99990391731262,1617.85106921196,"Reward",0,0,4
2,8,1,0.631721973419189,2.01535892486572,1637.91729712486,"0",2,1,4
2,8,1,0,2.01556706428528,1637.91750407219,"Reward",0,0,4
2,20,1,0.698868036270142,2.01503705978394,1657.98376297951,"0",2,1,4
2,20,1,0,2.01607418060303,1657.98479914665,"Reward",0,0,4
2,4,1,0.76496696472168,2.01567816734314,1678.05079007149,"0",2,5,4
2,4,1,0,2.01588320732117,1678.05099320412,"Reward",0,0,4
2,4,1,0.575346946716309,1.9990611076355,1698.10071802139,"0",0,6,4
2,4,1,0,2.00009608268738,1698.10175204277,"Reward",0,0,4
2,20,1,0.842850923538208,2.00003099441528,1718.1506831646,"0",1,2,4
2,20,1,0,2.00107312202454,1718.15172410011,"Reward",0,0,4
2,8,1,0.564501047134399,1.99887204170227,1738.20047020912,"0",0,5,4
2,8,1,0,1.99908113479614,1738.20067715645,"Reward",0,0,4
2,4,1,0.551927089691162,1.99950790405273,1758.25031018257,"0",0,0,4
2,4,1,0,1.9997239112854,1758.25052404404,"Reward",0,0,4
2,4,2,0.996810913085938,2.01607799530029,1778.31755208969,"0",2,2,4
2,4,2,0,2.01710200309753,1778.31857609749,"Forced travel",0,0,4
2,20,1,0.501068115234375,1.998615026474,1796.35028004646,"0",0,3,4
2,20,1,0,1.99882507324219,1796.35049009323,"Reward",0,0,4
10,20,1,0.520061016082764,2.00024604797363,1822.88435721397,"0",1,3,5
10,20,1,0.681565999984741,4.0165650844574,1824.90067505836,"0",2,2,5
10,20,1,0.647614002227783,5.99994802474976,1826.88405919075,"0",1,6,5
10,20,1,0.514878988265991,8.00003600120544,1828.88414716721,"0",1,1,5
10,20,1,0.536883115768433,9.99963307380676,1830.88374400139,"0",0,4,5
10,20,1,0,9.99985218048096,1830.88396310806,"Reward",0,0,5
10,8,1,0.915549993515015,2.01597213745117,1842.95068407059,"0",2,6,5
10,8,1,0.493736982345581,3.99920010566711,1844.9339120388,"0",1,3,5
10,8,1,0.547781944274902,6.01611018180847,1846.95082116127,"0",2,3,5
10,8,1,0.547220945358276,8.01590418815613,1848.95061612129,"0",2,5,5
10,8,1,0.656880855560303,9.9992401599884,1850.93395209312,"0",1,1,5
10,8,1,0,9.99946618080139,1850.93417716026,"Reward",0,0,5
10,4,0,0.132215976715088,0.133941173553467,1861.11898112297,"0",2,3,5
10,4,0,0,0.134137153625488,1861.11917710304,"Quit",0,0,5
10,20,1,0.516645908355713,1.99897193908691,1871.1506421566,"0",1,4,5
10,20,1,0.470916986465454,3.9981369972229,1873.14980602264,"0",0,6,5
10,20,1,0.387727022171021,5.99902105331421,1875.15069103241,"0",1,3,5
10,20,1,0.387624979019165,7.99868607521057,1877.15035605431,"0",1,4,5
10,20,1,0.407737016677856,9.9990451335907,1879.15071511269,"0",0,6,5
10,20,1,0,9.99926996231079,1879.15094017982,"Reward",0,0,5
10,8,1,0.651331901550293,2.00002098083496,1891.2008471489,"0",1,2,5
10,8,1,0.564918994903564,4.01626896858215,1893.21709513664,"0",2,0,5
10,8,1,0.543787002563477,5.9998300075531,1895.20065712929,"0",1,2,5
10,8,1,0.504848003387451,7.99990200996399,1897.20072817802,"0",1,1,5
10,8,1,0.58113694190979,10.0165100097656,1899.21733617783,"0",2,2,5
10,8,1,0,10.0167219638824,1899.21754717827,"Reward",0,0,5
10,4,0,0.27556300163269,0.295765161514282,1909.56401014328,"0",0,3,5
10,4,0,0,0.295910120010376,1909.5641541481,"Quit",0,0,5
10,8,1,0.646929025650024,2.00065302848816,1919.60092806816,"0",1,6,5
10,8,1,0.410696983337402,3.99992680549622,1921.60020112991,"0",1,6,5
10,8,1,0.731472969055176,6.00034403800964,1923.60061812401,"0",2,6,5
10,8,1,0.658287048339844,8.00034403800964,1925.60061812401,"0",0,1,5
10,8,1,0.424691915512085,10.0001268386841,1927.6004011631,"0",1,7,5
10,8,1,0,10.0011458396912,1927.60141921043,"Reward",0,0,5
10,4,0,0.322165012359619,0.327571153640747,1937.97858810425,"0",1,6,5
10,4,0,0,0.327706098556519,1937.97872209549,"Quit",0,0,5
10,4,2,0.997100114822388,2.0155200958252,1948.03393101692,"0",2,2,5
10,4,1,0.891596794128418,3.99882507324219,1950.01723599434,"0",0,7,5
10,4,1,0.713982105255127,6.015456199646,1952.03386712074,"0",2,0,5
10,4,1,0.498679876327515,8.01558804512024,1954.03399920464,"0",2,0,5
10,4,1,0.581482887268066,10.0155611038208,1956.03397202492,"0",2,0,5
10,4,1,0,10.0157930850983,1956.03420305252,"Reward",0,0,5
10,20,1,0.483025074005127,1.99942088127136,1968.08423614502,"0",1,7,5
10,20,1,0.470319986343384,3.99871206283569,1970.08352708817,"0",0,4,5
10,20,1,0.392636060714722,5.99912190437317,1972.08393716812,"0",0,6,5
10,20,1,0.38213586807251,7.99880194664001,1974.08361721039,"0",0,1,5
10,20,1,0.440560102462769,9.99912309646606,1976.0839381218,"0",1,5,5
10,20,1,0,9.99933505058289,1976.08414912224,"Reward",0,0,5
10,8,1,0.544130086898804,1.99934220314026,1988.13399410248,"0",1,3,5
10,8,1,0.664383888244629,4.0159330368042,1990.15058517456,"0",2,7,5
10,8,1,0.486189842224121,5.99922513961792,1992.13387703896,"0",0,2,5
10,8,1,0.547672986984253,8.01564502716064,1994.15029716492,"0",2,7,5
10,8,1,0.504349946975708,9.99917912483215,1996.1338300705,"0",0,2,5
10,8,1,0,9.99938917160034,1996.13404011726,"Reward",0,0,5
10,20,1,0.798675060272217,2.01598191261292,2008.20054912567,"0",2,6,5
10,20,1,0.837356805801392,3.99934506416321,2010.1839120388,"0",1,6,5
10,20,1,0.502912044525146,5.99928402900696,2012.18385004997,"0",1,1,5
10,20,1,0.438461065292358,7.99931693077087,2014.18388414383,"0",1,5,5
10,20,1,0.401072025299072,9.99944305419922,2016.18401002884,"0",1,4,5
10,20,1,0,9.99965405464172,2016.18422007561,"Reward",0,0,5
10,4,1,0.900187015533447,1.99911689758301,2028.23398900032,"0",1,0,5
10,4,2,0.996043920516968,4.01523995399475,2030.25011205673,"0",2,5,5
10,4,1,0.591788053512573,5.99867296218872,2032.23354506493,"0",1,1,5
10,4,1,0.431061029434204,7.99864888191223,2034.23352098465,"0",0,2,5
10,4,1,0.582134008407593,10.0156359672546,2036.25050806999,"0",2,6,5
10,4,1,0,10.0158460140228,2036.25071716309,"Reward",0,0,5
10,4,0,0.348423004150391,0.350812911987305,2046.652354002,"0",2,1,5
10,4,0,0,0.35184907913208,2046.65339016914,"Quit",0,0,5
10,20,1,0.632313966751099,2.01589393615723,2056.70042800903,"0",2,5,5
10,20,1,0.532299041748047,3.99926900863647,2058.68380308151,"0",0,1,5
10,20,1,0.618369102478027,5.99928402900696,2060.68381714821,"0",1,2,5
10,20,1,0.493881940841675,7.99931192398071,2062.68384599686,"0",1,0,5
10,20,1,0.764378070831299,10.0158369541168,2064.70037102699,"0",2,5,5
10,20,1,0,10.0160479545593,2064.70058107376,"Reward",0,0,5
10,8,1,0.643538951873779,1.99908399581909,2076.75048518181,"0",0,3,5
10,8,1,0.52316689491272,3.9991250038147,2078.7505261898,"0",0,1,5
10,8,1,0.489565849304199,5.99908804893494,2080.75048899651,"0",1,7,5
10,8,1,0.442212104797363,7.99936294555664,2082.75076413155,"0",0,2,5
10,8,1,0.355398893356323,9.99914598464966,2084.75054597855,"0",0,2,5
10,8,1,0,9.99935412406921,2084.75075316429,"Reward",0,0,5
10,20,1,0.514854907989502,1.99956798553467,2096.8007941246,"0",0,4,5
10,20,1,0.647331953048706,4.0152280330658,2098.81645417213,"0",2,1,5
10,20,1,0.637617111206055,5.99957704544067,2100.80080318451,"0",1,0,5
10,20,1,0.646787881851196,7.9992880821228,2102.80051398277,"0",1,6,5
10,20,1,0.467659950256348,9.9992949962616,2104.80052113533,"0",0,4,5
10,20,1,0,10.0006151199341,2104.80184006691,"Reward",0,0,5
10,8,1,0.638383865356445,1.99897193908691,2116.85044503212,"0",1,2,5
10,8,1,0.487036943435669,3.99869799613953,2118.85017108917,"0",1,6,5
10,8,1,0.647746086120605,6.01537179946899,2120.86684513092,"0",2,3,5
10,8,1,0.513328075408936,7.99869894981384,2122.85017108917,"0",1,5,5
10,8,1,0.932158946990967,10.0158369541168,2124.86731004715,"0",2,2,5
10,8,1,0,10.0160489082336,2124.86752104759,"Reward",0,0,5
10,4,0,0.573383092880249,0.579217195510864,2135.49737215042,"0",1,7,5
10,4,0,0,0.579358100891113,2135.4975130558,"Quit",0,0,5
10,20,1,0.765411138534546,1.99941802024841,2145.55068016052,"0",1,0,5
10,20,1,0.731261968612671,4.01608109474182,2147.56734418869,"0",2,5,5
10,20,1,0.64629602432251,5.99865698814392,2149.54991912842,"0",1,6,5
10,20,1,0.632350921630859,8.01627707481384,2151.56753921509,"0",2,6,5
10,20,1,0.468146085739136,9.99919104576111,2153.55045413971,"0",1,5,5
10,20,1,0,9.9994170665741,2153.55067801476,"Reward",0,0,5
10,8,1,0.632148027420044,2.01552700996399,2165.61680698395,"0",2,0,5
10,8,1,0.71802020072937,3.99894309043884,2167.60022211075,"0",1,7,5
10,8,1,0.59512996673584,5.99916696548462,2169.60044717789,"0",0,4,5
10,8,1,0.406649827957153,7.99909210205078,2171.60037302971,"0",0,0,5
10,8,1,0.430324077606201,9.99918699264526,2173.60046720505,"0",0,2,5
10,8,1,0,9.99941205978394,2173.60069108009,"Reward",0,0,5
10,4,1,0.510412931442261,1.99893593788147,2185.65043115616,"0",0,1,5
10,4,1,0.698020219802856,4.01543092727661,2187.66692519188,"0",2,2,5
10,4,1,0.467167139053345,5.99875998497009,2189.65025520325,"0",1,5,5
10,4,1,0.53019905090332,8.01560592651367,2191.66710114479,"0",2,0,5
10,4,1,0.518047094345093,9.99863600730896,2193.65013098717,"0",1,1,5
10,4,1,0,9.99885106086731,2193.65034508705,"Reward",0,0,5
10,8,1,0.648445844650269,2.01569104194641,2205.71695899963,"0",2,4,5
10,8,1,0.619921922683716,3.9994261264801,2207.70069503784,"0",1,0,5
10,8,1,0.435596227645874,5.99914717674255,2209.7004160881,"0",1,3,5
10,8,1,0.421176910400391,7.99912405014038,2211.70039319992,"0",0,5,5
10,8,1,0.384754180908203,9.99897313117981,2213.70024299622,"0",0,2,5
10,8,1,0,9.99923706054688,2213.70050406456,"Reward",0,0,5
10,20,1,0.664626836776733,2.01560211181641,2225.7669980526,"0",2,4,5
10,20,1,0.430585861206055,4.01561903953552,2227.76701498032,"0",2,6,5
10,20,1,0.414129018783569,6.01542210578918,2229.76681804657,"0",2,7,5
10,20,1,0.49622106552124,7.99909496307373,2231.75049114227,"0",0,1,5
10,20,1,0.430253028869629,10.0153470039368,2233.76674318314,"0",2,7,5
10,20,1,0,10.016664981842,2233.76806020737,"Reward",0,0,5
14,4,0,0.299100875854492,0.318492889404297,2250.26996207237,"0",0,0,6
14,4,0,0,0.318626880645752,2250.27009606361,"Quit",0,0,6
14,20,1,0.528761148452759,1.99897694587708,2256.30001306534,"0",0,4,6
14,20,1,0.586984157562256,3.99900698661804,2258.30004405975,"0",1,6,6
14,20,1,0.613966941833496,6.01603984832764,2260.31707715988,"0",2,6,6
14,20,1,0.448234796524048,8.01615881919861,2262.31719708443,"0",2,7,6
14,20,1,0.504770994186401,9.99930500984192,2264.3003411293,"0",0,4,6
14,20,1,0.498764038085938,11.9994289875031,2266.30046606064,"0",0,2,6
14,20,1,0.564360857009888,14.0159540176392,2268.31699109077,"0",2,7,6
14,20,1,0,14.0172679424286,2268.31830406189,"Reward",0,0,6
14,8,0,0.315707921981812,0.317566156387329,2274.68560814857,"0",2,7,6
14,8,0,0,0.317759990692139,2274.68580198288,"Quit",0,0,6
14,20,1,0.477674961090088,1.99978113174438,2280.71744704247,"0",0,2,6
14,20,1,0.580816030502319,4.01602602005005,2282.73369216919,"0",2,1,6
14,20,1,0.432085990905762,5.99936199188232,2284.71702814102,"0",1,5,6
14,20,1,0.647746086120605,8.01614212989807,2286.73380804062,"0",2,4,6
14,20,1,0.467483997344971,9.99926614761353,2288.71693110466,"0",1,4,6
14,20,1,0.531495094299316,12.0161120891571,2290.73377799988,"0",2,7,6
14,20,2,0.480474948883057,14.015967130661,2292.73363208771,"0",2,2,6
14,20,1,0,14.0161771774292,2292.73384213448,"Reward",0,0,6
14,8,1,0.505892992019653,1.99896788597107,2300.78364300728,"0",1,3,6
14,8,1,0.731770992279053,4.01569294929504,2302.8003680706,"0",2,4,6
14,8,1,0.413882970809937,5.99895787239075,2304.7836329937,"0",0,4,6
14,8,1,0.357605934143066,7.99864888191223,2306.78332400322,"0",0,6,6
14,8,1,0.393769025802612,9.99907279014587,2308.78374814987,"0",1,5,6
14,8,1,0.590947866439819,11.9988589286804,2310.78353404999,"0",0,5,6
14,8,1,0.605783939361572,13.9987168312073,2312.78339219093,"0",1,1,6
14,8,1,0,13.9989278316498,2312.78360104561,"Reward",0,0,6
14,4,0,0.273805141448975,0.277026891708374,2319.11068606377,"0",1,3,6
14,4,0,0,0.277734041213989,2319.11139416695,"Quit",0,0,6
14,20,1,0.479084014892578,1.99960279464722,2325.15062212944,"0",0,3,6
14,20,1,0.429088115692139,3.99930381774902,2327.15032315254,"0",0,4,6
14,20,1,0.648173093795776,6.01593494415283,2329.16695308685,"0",2,2,6
14,20,1,0.476058959960938,7.99923896789551,2331.15025806427,"0",0,5,6
14,20,1,0.447772979736328,10.0159559249878,2333.16697502136,"0",2,2,6
14,20,1,0.465652942657471,11.9992089271545,2335.15022802353,"0",0,1,6
14,20,1,0.447924137115479,14.0158698558807,2337.16688919067,"0",2,1,6
14,20,1,0,14.0160999298096,2337.16711807251,"Reward",0,0,6
14,8,0,0.35396409034729,0.359468936920166,2343.57700419426,"0",1,6,6
14,8,0,0,0.359604120254517,2343.5771381855,"Quit",0,0,6
14,4,0,0.343255043029785,0.348701000213623,2347.9660410881,"0",1,7,6
14,4,0,0,0.349411010742188,2347.96675109863,"Quit",0,0,6
14,20,1,0.532760143280029,1.99927401542664,2354.00057816505,"0",1,7,6
14,20,1,0.490327119827271,3.99882197380066,2356.00012516975,"0",1,6,6
14,20,1,0.664979934692383,6.015625,2358.01692819595,"0",2,6,6
14,20,1,0.484977006912231,7.998948097229,2360.00025105476,"0",0,3,6
14,20,1,0.397416830062866,9.99865198135376,2361.99995398521,"0",0,5,6
14,20,1,0.54107403755188,11.999046087265,2364.0003490448,"0",0,6,6
14,20,1,0.450927972793579,13.9989449977875,2366.00024700165,"0",1,3,6
14,20,1,0,13.999153137207,2366.00045514107,"Reward",0,0,6
14,4,0,0.316470146179199,0.318206071853638,2372.36933112144,"0",2,7,6
14,4,0,0,0.318402051925659,2372.36952710152,"Quit",0,0,6
14,8,1,0.569281816482544,1.99972891807556,2378.40047001839,"0",1,0,6
14,8,1,0.530217885971069,4.01614785194397,2380.41688919067,"0",2,1,6
14,8,1,0.547800064086914,6.01590585708618,2382.41664719582,"0",2,5,6
14,8,1,0.482006072998047,7.99954700469971,2384.40028810501,"0",0,6,6
14,8,1,0.456868886947632,9.99950981140137,2386.40025115013,"0",1,3,6
14,8,1,0.353044986724854,11.9994988441467,2388.40023899078,"0",1,3,6
14,8,1,0.601647138595581,13.9991569519043,2390.39989805222,"0",0,7,6
14,8,1,0,13.9993669986725,2390.40010714531,"Reward",0,0,6
14,4,0,0.299635887145996,0.301364898681641,2396.7523419857,"0",2,2,6
14,4,0,0,0.302680015563965,2396.75365710258,"Quit",0,0,6
14,4,0,0.282347917556763,0.284075021743774,2401.06892800331,"0",2,7,6
14,4,0,0,0.284274101257324,2401.06912612915,"Quit",0,0,6
14,20,1,0.671761989593506,1.99943590164185,2407.10043001175,"0",0,7,6
14,20,1,0.624486923217773,3.99914598464966,2409.10014009476,"0",1,0,6
14,20,2,0.483932971954346,5.99926996231079,2411.10026311874,"0",0,5,6
14,20,1,0.648315906524658,8.01592588424683,2413.11691999435,"0",2,7,6
14,20,1,0.493894100189209,9.99921798706055,2415.10021209717,"0",0,2,6
14,20,1,0.514619112014771,12.0158429145813,2417.11683702469,"0",2,0,6
14,20,1,0.531693935394287,14.0162107944489,2419.11720514297,"0",2,6,6
14,20,1,0,14.0175228118896,2419.11851620674,"Reward",0,0,6
14,8,1,0.765866994857788,2.01578593254089,2427.18317198753,"0",2,7,6
14,8,1,0.398376941680908,4.01613783836365,2429.18352413177,"0",2,5,6
14,8,1,0.600277185440063,5.99917602539062,2431.16656208038,"0",1,6,6
14,8,1,0.463677167892456,7.99919986724854,2433.16658616066,"0",0,6,6
14,8,1,0.531828880310059,10.0161409378052,2435.1835269928,"0",2,7,6
14,8,1,0.348958015441895,11.9994969367981,2437.16688299179,"0",0,6,6
14,8,1,0.469442129135132,13.9990329742432,2439.16641902924,"0",0,1,6
14,8,1,0,13.9992439746857,2439.166629076,"Reward",0,0,6
14,8,0,0.30102801322937,0.320271968841553,2445.53804206848,"0",0,0,6
14,8,0,0,0.320407867431641,2445.53817820549,"Quit",0,0,6
14,20,1,0.690753936767578,1.99970698356628,2451.56688809395,"0",1,2,6
14,20,1,0.698405027389526,4.01603198051453,2453.58321213722,"0",2,7,6
14,20,1,0.438908815383911,5.99969291687012,2455.56687307358,"0",0,2,6
14,20,1,0.419120073318481,7.99939393997192,2457.56657505035,"0",0,6,6
14,20,1,0.769625902175903,9.99964189529419,2459.56682300568,"0",1,7,6
14,20,1,0.534941911697388,11.9996409416199,2461.566822052,"0",1,2,6
14,20,1,0.46594500541687,13.9996829032898,2463.56686401367,"0",0,4,6
14,20,1,0,13.9998908042908,2463.56707119942,"Reward",0,0,6
14,4,0,0.266282081604004,0.268010139465332,2469.88577008247,"0",2,1,6
14,4,0,0,0.269030094146729,2469.88679003716,"Quit",0,0,6
14,20,1,0.470334053039551,1.99898195266724,2475.9165520668,"0",0,1,6
14,20,1,0.630460023880005,4.01595878601074,2477.93352913857,"0",2,3,6
14,20,1,0.44883918762207,5.99928379058838,2479.91685509682,"0",0,2,6
14,20,1,0.548315048217773,8.0162148475647,2481.93378615379,"0",2,4,6
14,20,2,0.748246908187866,10.0156698226929,2483.93324017525,"0",2,6,6
14,20,1,0.531679153442383,12.0157999992371,2485.93337011337,"0",2,6,6
14,20,1,0.530955076217651,13.9992799758911,2487.91685009003,"0",1,3,6
14,20,1,0,13.9994909763336,2487.9170601368,"Reward",0,0,6
14,20,1,0.64824390411377,2.01524496078491,2495.98316121101,"0",2,4,6
14,20,1,0.446588039398193,3.99897003173828,2497.96688508987,"0",0,1,6
14,20,1,0.593652009963989,5.99894690513611,2499.96686315536,"0",1,0,6
14,20,1,0.54864501953125,8.01581311225891,2501.98373007774,"0",2,6,6
14,20,1,0.647462129592896,10.0158989429474,2503.98381519318,"0",2,2,6
14,20,1,0.508622884750366,11.9989430904388,2505.96685910225,"0",1,3,6
14,20,1,0.631024122238159,14.0155839920044,2507.98350000381,"0",2,4,6
14,20,1,0,14.0157949924469,2507.98371005058,"Reward",0,0,6
14,4,0,0.226964950561523,0.24718189239502,2514.28165221214,"0",0,5,6
14,4,0,0,0.247319936752319,2514.28179001808,"Quit",0,0,6
14,8,1,0.732157945632935,1.99920201301575,2520.31703209877,"0",1,6,6
14,8,1,0.490835905075073,3.99900484085083,2522.31683516502,"0",1,5,6
14,8,1,0.514703989028931,6.01536202430725,2524.33319211006,"0",2,3,6
14,8,1,0.498730182647705,7.99897193908691,2526.31680107117,"0",0,5,6
14,8,1,0.389992952346802,9.99921202659607,2528.31704211235,"0",0,3,6
14,8,1,0.557928800582886,11.9990198612213,2530.31685018539,"0",1,6,6
14,8,1,0.401824951171875,13.9989938735962,2532.31682419777,"0",0,3,6
14,8,1,0,13.9992039203644,2532.31703305244,"Reward",0,0,6
14,8,1,0.469935178756714,2.00030207633972,2540.36703801155,"0",0,6,6
14,8,1,0.497832059860229,4.00020313262939,2542.36693716049,"0",1,2,6
14,8,1,0.681550025939941,6.01677894592285,2544.38351416588,"0",2,2,6
14,8,1,0.565254926681519,8.00043392181396,2546.36716914177,"0",1,4,6
14,8,1,0.548251152038574,9.99996304512024,2548.36669802666,"0",2,0,6
14,8,1,0.381247997283936,12.0001261234283,2550.36686015129,"0",1,3,6
14,8,1,0.648214101791382,14.0166320800781,2552.38336706161,"0",2,2,6
14,8,1,0,14.0168380737305,2552.38357210159,"Reward",0,0,6
14,8,0,0.297134160995483,0.316442012786865,2558.75078105927,"0",0,4,6
14,8,0,0,0.317138910293579,2558.7514770031,"Quit",0,0,6
14,20,1,0.551337003707886,1.9990918636322,2564.78350615501,"0",0,0,6
14,20,1,0.697571039199829,4.01570296287537,2566.80011701584,"0",2,6,6
14,20,1,0.45009708404541,5.9990918636322,2568.78350615501,"0",0,0,6
14,20,1,0.484978914260864,7.99905705451965,2570.78347110748,"0",1,3,6
14,20,1,0.730900049209595,10.0149118900299,2572.79932618141,"0",2,7,6
14,20,1,0.703164100646973,11.9991109371185,2574.78352499008,"0",1,2,6
14,20,1,0.51441502571106,14.0156228542328,2576.80003714561,"0",2,3,6
14,20,1,0,14.0158350467682,2576.80024719238,"Reward",0,0,6
14,4,0,0.270349979400635,0.294148921966553,2583.14515805244,"0",0,6,6
14,4,0,0,0.294282913208008,2583.14529204369,"Quit",0,0,6
14,4,0,0.348826885223389,0.353331089019775,2587.53798818588,"0",1,4,6
14,4,0,0,0.354056119918823,2587.53871417046,"Quit",0,0,6
14,8,1,0.616064071655273,2.01632118225098,2593.58317613602,"0",2,2,6
14,8,1,0.47322416305542,4.00016307830811,2595.56701898575,"0",0,3,6
14,8,1,0.355559825897217,6.0002110004425,2597.5670671463,"0",0,2,6
14,8,1,0.350804090499878,7.99987101554871,2599.56672620773,"0",0,5,6
14,8,2,0.69845986366272,10.0166051387787,2601.58346104622,"0",2,3,6
14,8,1,0.581326007843018,12.0158150196075,2603.58267116547,"0",2,0,6
14,8,1,0.579063892364502,13.9999620914459,2605.56681919098,"0",1,6,6
14,8,1,0,14.0001711845398,2605.56702613831,"Reward",0,0,6
14,20,1,0.542165994644165,1.99933290481567,2613.61661100388,"0",0,2,6
14,20,1,0.583832979202271,3.99952483177185,2615.61680316925,"0",1,1,6
14,20,1,0.454092025756836,5.99902081489563,2617.61629915237,"0",0,0,6
14,20,1,0.881376028060913,8.01605200767517,2619.63333010674,"0",2,7,6
14,20,1,0.471167087554932,9.99947881698608,2621.61675715446,"0",0,6,6
14,20,1,0.353410959243774,11.9996938705444,2623.61697220802,"0",0,4,6
14,20,1,0.905086994171143,13.9996938705444,2625.61697220802,"0",1,0,6
14,20,1,0,14.0010178089142,2625.61829519272,"Reward",0,0,6
14,20,1,0.471067905426025,1.99877715110779,2633.66666603088,"0",1,5,6
14,20,1,0.514994859695435,3.99859118461609,2635.66647911072,"0",0,1,6
14,20,1,0.648414850234985,6.01551508903503,2637.68340301514,"0",2,3,6
14,20,1,0.421310901641846,7.99880814552307,2639.66669607162,"0",0,4,6
14,20,1,0.489350080490112,9.99885511398315,2641.66674304008,"0",1,0,6
14,20,1,0.396198034286499,11.9988269805908,2643.66671514511,"0",1,0,6
14,20,1,0.581216096878052,14.0156450271606,2645.68353319168,"0",2,4,6
14,20,1,0,14.0158531665802,2645.68374013901,"Reward",0,0,6
14,4,0,0.349416017532349,0.351267099380493,2652.08574104309,"0",2,7,6
14,4,0,0,0.352263212203979,2652.08673715591,"Quit",0,0,6
14,8,0,0.266008853912354,0.267750024795532,2656.38551402092,"0",2,6,6
14,8,0,0,0.267951011657715,2656.38571500778,"Quit",0,0,6
14,8,0,0.28326416015625,0.3023841381073,2660.71949315071,"0",0,2,6
14,8,0,0,0.302519083023071,2660.7196290493,"Quit",0,0,6
