"Handling","Reward","Choice","Task.RT","Choice.RT","Experiment.Time","Trial.Outcome","Task.Type","Task.Setup","Block"
2,4,1,0.754069089889526,1.99905395507812,9.05489301681519,"0",1,2,1
2,4,1,0,1.99941492080688,9.05525302886963,"Reward",0,0,1
2,4,0,0.371354818344116,0.374367952346802,27.4968950748444,"0",1,3,1
2,4,0,0,0.374507904052734,27.497034072876,"Quit",0,0,1
2,8,2,1.00007700920105,1.99900984764099,45.5222561359406,"0",0,5,1
2,8,2,0,1.99920988082886,45.5224549770355,"Forced travel",0,0,1
2,20,1,0.880015134811401,2.01583814620972,63.5725131034851,"0",2,6,1
2,20,1,0,2.01688599586487,63.5735599994659,"Reward",0,0,1
2,20,1,0.590682983398438,1.99907779693604,83.6228971481323,"0",1,0,1
2,20,1,0,1.99928879737854,83.6231060028076,"Reward",0,0,1
2,8,1,0.747249126434326,2.01609182357788,103.690152168274,"0",2,6,1
2,8,1,0,2.01629996299744,103.690359115601,"Reward",0,0,1
2,4,0,0.298771858215332,0.300622940063477,122.041980981827,"0",2,2,1
2,4,0,0,0.301635980606079,122.042993068695,"Quit",0,0,1
2,8,2,0.997652053833008,2.01581406593323,140.090511083603,"0",2,0,1
2,8,2,0,2.01601696014404,140.090713977814,"Forced travel",0,0,1
2,20,1,0.921044111251831,1.99896383285522,158.124214172363,"0",1,2,1
2,20,1,0,1.99998593330383,158.125235080719,"Reward",0,0,1
2,4,0,0.244164943695068,0.24703311920166,176.422388076782,"0",1,3,1
2,4,0,0,0.247709989547729,176.423065185547,"Quit",0,0,1
2,8,1,0.809695959091187,1.99893999099731,194.457952022552,"0",0,0,1
2,8,1,0,1.99914908409119,194.458160161972,"Reward",0,0,1
2,20,1,0.846781969070435,1.9993040561676,214.508541107178,"0",1,6,1
2,20,1,0,2.00143098831177,214.510667085648,"Reward",0,0,1
2,8,2,0.704116821289062,1.99907493591309,234.558718204498,"0",0,7,1
2,8,2,0,1.99943399429321,234.559076070786,"Forced travel",0,0,1
2,20,1,0.813544034957886,1.9988968372345,252.59233212471,"0",0,6,1
2,20,1,0,1.99910497665405,252.592539072037,"Reward",0,0,1
2,20,1,0.614622831344604,1.99895596504211,272.642894983292,"0",1,2,1
2,20,1,0,1.99916410446167,272.643102169037,"Reward",0,0,1
2,4,0,0.560367107391357,0.580996990203857,291.275037050247,"0",0,7,1
2,4,0,0,0.581135034561157,291.275175094604,"Quit",0,0,1
2,8,1,0.797177076339722,1.99897909164429,309.310168027878,"0",1,6,1
2,8,1,0,1.99918794631958,309.310376167297,"Reward",0,0,1
2,4,1,0.746927976608276,1.99880814552307,329.360350131989,"0",0,4,1
2,4,1,0,2.00092315673828,329.362465143204,"Reward",0,0,1
2,20,1,0.603456020355225,1.99930906295776,349.410901069641,"0",1,4,1
2,20,1,0,1.99951791763306,349.411108016968,"Reward",0,0,1
2,4,1,0.599391937255859,1.99941897392273,369.461247205734,"0",1,6,1
2,4,1,0,1.99964690208435,369.461474180222,"Reward",0,0,1
2,8,0,0.232321977615356,0.234062910079956,387.746468067169,"0",2,3,1
2,8,0,0,0.234994888305664,387.747400045395,"Quit",0,0,1
2,4,2,0.997156858444214,2.01566100120544,405.795169115067,"0",2,3,1
2,4,2,0,2.01696991920471,405.796477079391,"Forced travel",0,0,1
14,8,1,0.882116079330444,2.01601409912109,431.312370061874,"0",2,5,2
14,8,1,0.864161014556885,4.01599407196045,433.312350034714,"0",2,1,2
14,8,2,1.00010991096497,5.99937295913696,435.295729160309,"0",0,4,2
14,8,1,0.898476123809814,8.01608610153198,437.312442064285,"0",2,6,2
14,8,1,0.91471004486084,10.0159170627594,439.312273025513,"0",2,2,2
14,8,1,0.748419046401978,12.0161881446838,441.312544107437,"0",2,1,2
14,8,1,0.731719017028809,14.0161790847778,443.312535047531,"0",2,6,2
14,8,1,0,14.0163850784302,443.312740087509,"Reward",0,0,2
14,20,1,0.714920043945312,2.01572299003601,451.379191160202,"0",2,1,2
14,20,1,0.929978847503662,4.01594305038452,453.379410982132,"0",2,7,2
14,20,1,0.528892993927002,5.99924898147583,455.362717151642,"0",1,5,2
14,20,1,0.748602151870728,8.01627111434937,457.379739046097,"0",2,0,2
14,20,1,0.707429170608521,9.99903011322021,459.362498044968,"0",1,2,2
14,20,1,0.608342170715332,11.9993810653687,461.362848997116,"0",1,0,2
14,20,1,0.720434904098511,13.9997019767761,463.363169193268,"0",1,7,2
14,20,1,0,13.9999260902405,463.363393068314,"Reward",0,0,2
14,8,2,0.825384855270386,1.9992151260376,471.413038015366,"0",0,2,2
14,8,1,0.799773931503296,3.99927306175232,473.413096189499,"0",0,0,2
14,8,1,0.981667995452881,5.99927401542664,475.413097143173,"0",0,7,2
14,8,1,0.996985912322998,7.99909210205078,477.412914991379,"0",2,6,2
14,8,1,0.63942289352417,9.99949717521667,479.413321018219,"0",1,1,2
14,8,2,0.996695041656494,12.0160632133484,481.429886102676,"0",2,3,2
14,8,2,0,12.0162661075592,481.430088043213,"Forced travel",0,0,2
14,20,1,0.836504936218262,1.99900221824646,487.463282108307,"0",0,1,2
14,20,1,0.910820007324219,3.99906301498413,489.463342189789,"0",0,4,2
14,20,1,0.667986154556274,5.99909615516663,491.463376045227,"0",0,7,2
14,20,1,0.605318784713745,7.99909806251526,493.463378190994,"0",0,3,2
14,20,1,0.473984956741333,9.99919414520264,495.463474035263,"0",0,3,2
14,20,1,0.57426905632019,11.9991421699524,497.463422060013,"0",0,2,2
14,20,2,0.997071981430054,14.0159242153168,499.480204105377,"0",2,2,2
14,20,1,0,14.0161340236664,499.480413198471,"Reward",0,0,2
14,4,0,0.279783010482788,0.298709869384766,505.829967975616,"0",0,5,2
14,4,0,0,0.299457788467407,505.830715179443,"Quit",0,0,2
14,4,0,0.275774955749512,0.294819831848145,510.159744977951,"0",0,4,2
14,4,0,0,0.294969797134399,510.159893989563,"Quit",0,0,2
14,8,1,0.603101968765259,1.99895286560059,516.196961164474,"0",0,0,2
14,8,1,0.748028039932251,4.01583695411682,518.213845014572,"0",2,5,2
14,8,1,0.681478977203369,6.01589393615723,520.213901996613,"0",2,2,2
14,8,1,0.616819143295288,7.999263048172,522.197272062302,"0",1,0,2
14,8,1,0.616448879241943,9.99911093711853,524.197118997574,"0",0,2,2
14,8,1,0.516396045684814,11.9993569850922,526.197365045547,"0",0,7,2
14,8,1,0.508549928665161,13.999372959137,528.197381019592,"0",1,4,2
14,8,1,0,13.9995830059052,528.19759106636,"Reward",0,0,2
14,8,1,0.458450794219971,1.99903702735901,536.247523069382,"0",1,4,2
14,8,1,0.523074150085449,3.9988579750061,538.247344017029,"0",0,0,2
14,8,1,0.527435064315796,5.99906396865845,540.247550010681,"0",1,0,2
14,8,1,0.63170599937439,8.01558995246887,542.264075994492,"0",2,7,2
14,8,2,0.528126001358032,9.99916291236877,544.24764919281,"0",0,1,2
14,8,1,0.565758943557739,11.9995150566101,546.248001098633,"0",1,1,2
14,8,1,0.980684041976929,14.0158970355988,548.264382123947,"0",2,0,2
14,8,1,0,14.0161049365997,548.264589071274,"Reward",0,0,2
14,20,1,0.519858121871948,1.99891090393066,556.314278125763,"0",0,3,2
14,20,1,0.625416994094849,3.99920201301575,558.314568996429,"0",1,6,2
14,20,1,0.524534940719604,5.99921298027039,560.31457901001,"0",0,2,2
14,20,2,0.981197118759155,8.01625800132751,562.331624984741,"0",2,5,2
14,20,1,0.782373905181885,9.9991021156311,564.31446814537,"0",1,2,2
14,20,1,0.73105001449585,12.016273021698,566.331640005112,"0",2,7,2
14,20,1,0.556351900100708,13.9992001056671,568.314567089081,"0",1,2,2
14,20,1,0,13.9994060993195,568.314772129059,"Reward",0,0,2
14,20,1,0.591279983520508,1.99892282485962,576.364875078201,"0",0,0,2
14,20,1,0.513928174972534,3.99877882003784,578.364730119705,"0",0,3,2
14,20,1,0.781857013702393,6.01565790176392,580.381609201431,"0",2,7,2
14,20,1,0.576536893844604,7.99936699867249,582.365318059921,"0",0,4,2
14,20,2,0.996433019638062,10.0155429840088,584.381493091583,"0",2,2,2
14,20,1,0.780208826065063,12.0155849456787,586.381536006927,"0",2,6,2
14,20,1,0.576893091201782,13.999303817749,588.365255117416,"0",0,4,2
14,20,1,0,14.000617980957,588.366568088531,"Reward",0,0,2
14,4,1,0.54778003692627,1.99895191192627,596.415223121643,"0",0,2,2
14,4,1,0.747821092605591,4.01572895050049,598.432000160217,"0",2,5,2
14,4,1,0.506501913070679,5.99910807609558,600.415379047394,"0",0,6,2
14,4,1,0.449894905090332,7.99906492233276,602.41533613205,"0",0,0,2
14,4,1,0.565813064575195,9.99914503097534,604.415417194366,"0",1,6,2
14,4,1,0.573523998260498,11.9991841316223,606.415455102921,"0",1,1,2
14,4,1,0.613687038421631,13.9988059997559,608.415076971054,"0",0,7,2
14,4,1,0,13.9990129470825,608.415283203125,"Reward",0,0,2
14,4,0,0.264256954193115,0.265975952148438,614.732311010361,"0",2,2,2
14,4,0,0,0.266172885894775,614.732506036758,"Quit",0,0,2
14,20,1,0.521476030349731,1.99899387359619,620.765482187271,"0",0,5,2
14,20,1,0.40930700302124,3.99921584129333,622.765704154968,"0",0,5,2
14,20,1,0.681302070617676,6.01624584197998,624.782734155655,"0",2,4,2
14,20,1,0.550770998001099,7.99930787086487,626.76579618454,"0",0,2,2
14,20,1,0.425220012664795,9.99911093711853,628.765599012375,"0",0,2,2
14,20,1,0.527362108230591,11.9994029998779,630.765891075134,"0",1,1,2
14,20,1,0.436162948608398,13.9994068145752,632.76589512825,"0",1,5,2
14,20,1,0,13.9996268749237,632.766113996506,"Reward",0,0,2
14,4,0,0.249490976333618,0.268611907958984,639.085448980331,"0",0,5,2
14,4,0,0,0.269859075546265,639.086695194244,"Quit",0,0,2
14,8,1,0.747323036193848,2.01592993736267,645.133036136627,"0",2,6,2
14,8,2,0.996838092803955,4.01575398445129,647.132860183716,"0",2,4,2
14,8,1,0.69807505607605,5.99912214279175,649.116228103638,"0",0,1,2
14,8,1,0.664921045303345,8.01578211784363,651.13288807869,"0",2,4,2
14,8,1,0.514373064041138,9.99914598464966,653.116252183914,"0",0,6,2
14,8,1,0.5972900390625,11.99897813797,655.116084098816,"0",0,2,2
14,8,1,0.47325587272644,13.9992251396179,657.116331100464,"0",0,4,2
14,8,1,0,13.9994320869446,657.116537094116,"Reward",0,0,2
14,20,2,0.997074127197266,2.01598691940308,665.183205127716,"0",2,1,2
14,20,1,0.682095050811768,3.99930906295776,667.166527032852,"0",1,6,2
14,20,1,0.501071929931641,5.99964213371277,669.166860103607,"0",1,4,2
14,20,1,0.598207950592041,8.01578402519226,671.183001995087,"0",2,7,2
14,20,1,0.557209968566895,9.9994261264801,673.1666431427,"0",1,6,2
14,20,1,0.6144859790802,12.016086101532,675.183304071426,"0",2,5,2
14,20,1,0.512917041778564,13.9993009567261,677.166519165039,"0",1,1,2
14,20,1,0,13.9995210170746,677.166738033295,"Reward",0,0,2
14,8,1,0.881896018981934,2.01610589027405,685.233800172806,"0",2,0,2
14,8,1,0.930850028991699,4.01527500152588,687.232969045639,"0",2,2,2
14,8,1,0.584758996963501,5.99901390075684,689.216708183289,"0",1,5,2
14,8,2,0.996971845626831,8.01590585708618,691.233599185944,"0",2,2,2
14,8,1,0.579493999481201,9.9993200302124,693.217014074326,"0",1,1,2
14,8,1,0.613168954849243,11.9993140697479,695.217008113861,"0",1,1,2
14,8,1,0.426095962524414,13.9991359710693,697.216830015182,"0",0,4,2
14,8,1,0,13.9993438720703,697.217037200928,"Reward",0,0,2
14,4,0,0.226613998413086,0.232033014297485,703.498893022537,"0",1,7,2
14,4,0,0,0.232170104980469,703.499029159546,"Quit",0,0,2
14,20,1,0.50493597984314,1.999272108078,709.533991098404,"0",0,2,2
14,20,1,0.733619928359985,3.99922609329224,711.533945083618,"0",0,3,2
14,20,1,0.518342971801758,5.9992949962616,713.534013986588,"0",0,1,2
14,20,1,0.698112010955811,8.01600408554077,715.550723075867,"0",2,1,2
14,20,1,0.664472818374634,10.016037940979,717.550755977631,"0",2,5,2
14,20,1,0.731640815734863,12.0160779953003,719.550796985626,"0",2,1,2
14,20,1,0.814275979995728,14.01615691185,721.550876140594,"0",2,1,2
14,20,1,0,14.0163679122925,721.551086187363,"Reward",0,0,2
14,4,0,0.216442823410034,0.235291004180908,727.836901187897,"0",0,0,2
14,4,0,0,0.236539125442505,727.83814907074,"Quit",0,0,2
14,8,1,0.539718151092529,1.99915504455566,733.867691993713,"0",0,3,2
14,8,1,0.865120887756348,4.01587700843811,735.884414196014,"0",2,1,2
14,8,1,0.698283195495605,6.01592111587524,737.884459018707,"0",2,2,2
14,8,1,0.798037052154541,8.01626300811768,739.884800195694,"0",2,3,2
14,8,1,0.582216024398804,9.99930000305176,741.867837190628,"0",0,5,2
14,8,1,0.73863697052002,11.9993419647217,743.867879152298,"0",1,1,2
14,8,1,0.880615949630737,14.0160541534424,745.8845911026,"0",2,3,2
14,8,1,0,14.0170600414276,745.885596036911,"Reward",0,0,2
14,8,0,0.398766040802002,0.400609970092773,752.33603310585,"0",2,1,2
14,8,0,0,0.401938915252686,752.33736205101,"Quit",0,0,2
14,20,1,0.63792896270752,1.99917101860046,758.368148088455,"0",1,6,2
14,20,2,0.996865034103394,4.01585292816162,760.384829998016,"0",2,3,2
14,20,1,0.553210973739624,5.99924397468567,762.36822104454,"0",0,0,2
14,20,1,0.458253860473633,7.99952793121338,764.368504047394,"0",1,4,2
14,20,1,0.441019058227539,9.99930596351624,766.368283033371,"0",1,4,2
14,20,1,0.488530158996582,11.9993209838867,768.368298053741,"0",1,6,2
14,20,1,0.681578159332275,14.0160648822784,770.385042190552,"0",2,4,2
14,20,1,0,14.016294002533,770.385270118713,"Reward",0,0,2
14,4,1,0.472798824310303,1.9989960193634,778.435163021088,"0",1,3,2
14,4,1,0.543268918991089,4.01569604873657,780.451863050461,"0",0,5,2
14,4,2,0.848438024520874,6.01575589179993,782.451923131943,"0",2,3,2
14,4,1,0.617183208465576,7.99870204925537,784.434870004654,"0",1,4,2
14,4,1,0.535200834274292,9.99916791915894,786.435335159302,"0",1,4,2
14,4,1,0.478991985321045,11.9991979598999,788.435365200043,"0",1,5,2
14,4,1,0.781359910964966,14.0156810283661,790.45184803009,"0",2,4,2
14,4,1,0,14.0158848762512,790.45205116272,"Reward",0,0,2
14,8,1,0.707083940505981,1.99929189682007,798.502504110336,"0",1,2,2
14,8,1,0.495583057403564,3.99902200698853,800.502233028412,"0",0,2,2
14,8,1,0.419820785522461,5.99905300140381,802.502264022827,"0",0,0,2
14,8,1,0.402803897857666,7.99907302856445,804.502284049988,"0",0,3,2
14,8,1,0.471773862838745,9.99912095069885,806.502331972122,"0",1,3,2
14,8,1,0.714471817016602,12.0157299041748,808.518941164017,"0",2,0,2
14,8,1,0.931097984313965,14.0158450603485,810.519056081772,"0",2,3,2
14,8,1,0,14.0160429477692,810.519252061844,"Reward",0,0,2
14,8,0,0.269769906997681,0.274168968200684,816.844106197357,"0",1,1,2
14,8,0,0,0.274305105209351,816.844242095947,"Quit",0,0,2
14,4,0,0.481028079986572,0.485454797744751,821.35533618927,"0",1,4,2
14,4,0,0,0.485602855682373,821.355483055115,"Quit",0,0,2
14,20,1,0.584786891937256,2.00030994415283,827.386056184769,"0",1,1,2
14,20,1,0.49086594581604,4.00029897689819,829.386044025421,"0",0,3,2
14,20,1,0.513075113296509,6.0003969669342,831.386142015457,"0",1,4,2
14,20,2,0.997092962265015,8.00041484832764,833.386160135269,"0",2,2,2
14,20,2,0.947317123413086,10.0004389286041,835.386183977127,"0",2,6,2
14,20,2,0,10.0014100074768,835.387154102325,"Forced travel",0,0,2
14,20,1,0.550306081771851,1.99885296821594,841.419602155685,"0",1,1,2
14,20,1,0.61162805557251,3.99877500534058,843.419523000717,"0",0,7,2
14,20,1,0.466570138931274,5.99922895431519,845.419978141785,"0",1,2,2
14,20,1,0.466077089309692,7.99896097183228,847.419710159302,"0",0,3,2
14,20,1,0.648514986038208,10.0157129764557,849.436462163925,"0",2,5,2
14,20,1,0.458942890167236,11.9990320205688,851.419780015945,"0",1,7,2
14,20,1,0.414251804351807,13.9991130828857,853.419862031937,"0",1,5,2
14,20,1,0,13.9993200302124,853.420068025589,"Reward",0,0,2
10,8,1,0.497657060623169,1.99854397773743,867.636735200882,"0",1,5,3
10,8,1,0.88003396987915,4.01530790328979,869.653499126434,"0",2,1,3
10,8,1,0.518844127655029,5.99861907958984,871.636810064316,"0",1,3,3
10,8,1,0.781486034393311,8.01534104347229,873.653531074524,"0",2,0,3
10,8,1,0.615038871765137,10.0153629779816,875.6535551548,"0",2,4,3
10,8,1,0,10.0155711174011,875.653761148453,"Reward",0,0,3
10,4,0,0.214991092681885,0.233793973922729,885.938335180283,"0",0,1,3
10,4,0,0,0.233927965164185,885.938470125198,"Quit",0,0,3
10,4,0,0.243013858795166,0.261750936508179,894.233509063721,"0",0,2,3
10,4,0,0,0.261888980865479,894.233647108078,"Quit",0,0,3
10,8,1,0.597692012786865,2.01600694656372,904.287360191345,"0",2,4,3
10,8,2,0.881171941757202,4.0160870552063,906.287439107895,"0",2,7,3
10,8,1,0.730462074279785,6.01595902442932,908.287311077118,"0",2,1,3
10,8,1,0.882241010665894,8.01571989059448,910.287072181702,"0",2,2,3
10,8,1,0.899860143661499,10.0159869194031,912.287338972092,"0",2,6,3
10,8,1,0,10.0162029266357,912.28755402565,"Reward",0,0,3
10,20,1,0.73130989074707,2.01567006111145,924.354363203049,"0",2,4,3
10,20,1,0.522116899490356,3.99908709526062,926.337779045105,"0",1,3,3
10,20,1,0.536707878112793,5.99917101860046,928.337863206863,"0",0,2,3
10,20,2,0.99694299697876,8.01583099365234,930.354523181915,"0",2,2,3
10,20,1,0.599207878112793,9.99949407577515,932.33818602562,"0",0,7,3
10,20,1,0,9.99970293045044,932.338394165039,"Reward",0,0,3
10,20,1,0.502310991287231,1.99880480766296,944.388130187988,"0",0,1,3
10,20,1,0.542762041091919,3.9988739490509,946.388200044632,"0",1,2,3
10,20,1,0.948224067687988,6.01531100273132,948.404637098312,"0",2,0,3
10,20,1,0.915308952331543,8.01544380187988,950.404769182205,"0",2,2,3
10,20,1,0.815102100372314,10.0155889987946,952.404915094376,"0",2,1,3
10,20,1,0,10.0157988071442,952.405122995377,"Reward",0,0,3
10,20,1,0.489500999450684,1.99935102462769,964.455104112625,"0",0,1,3
10,20,1,0.477530002593994,3.99941682815552,966.455169200897,"0",1,3,3
10,20,1,0.53521990776062,5.99974799156189,968.455500125885,"0",1,6,3
10,20,1,0.354066133499146,7.99954891204834,970.455302000046,"0",1,4,3
10,20,1,0.59819483757019,10.0159819126129,972.471734046936,"0",2,4,3
10,20,1,0,10.0161888599396,972.471940994263,"Reward",0,0,3
10,4,1,0.682337045669556,2.01585006713867,984.538480997086,"0",2,1,3
10,4,1,0.536662101745605,3.99933505058289,986.52196598053,"0",1,1,3
10,4,1,0.490140914916992,5.99957013130188,988.522200107574,"0",0,6,3
10,4,1,0.424654960632324,7.9996600151062,990.522289991379,"0",1,5,3
10,4,1,0.698431015014648,10.016163110733,992.53879404068,"0",2,7,3
10,4,1,0,10.0163719654083,992.539002180099,"Reward",0,0,3
10,4,0,0.246117115020752,0.265206098556519,1002.85516905785,"0",0,5,3
10,4,0,0,0.265351057052612,1002.85531401634,"Quit",0,0,3
10,8,1,0.564608097076416,1.99899101257324,1012.88933420181,"0",1,0,3
10,8,1,0.48717188835144,3.9988260269165,1014.88917016983,"0",0,4,3
10,8,1,0.527677059173584,5.99883008003235,1016.88917398453,"0",0,1,3
10,8,1,0.427366971969604,7.99910020828247,1018.88944411278,"0",1,5,3
10,8,1,0.597953081130981,10.0157949924469,1020.90614008904,"0",2,5,3
10,8,1,0,10.017117023468,1020.90745997429,"Reward",0,0,3
10,8,0,0.316533088684082,0.335394144058228,1031.29255414009,"0",0,1,3
10,8,0,0,0.335530042648315,1031.29269099236,"Quit",0,0,3
10,20,1,0.521397113800049,1.99900913238525,1041.32318711281,"0",0,4,3
10,20,1,0.550652980804443,3.99898791313171,1043.32316613197,"0",1,6,3
10,20,1,0.413580894470215,5.99907207489014,1045.32325005531,"0",1,3,3
10,20,1,0.780972003936768,8.01575613021851,1047.33993411064,"0",2,2,3
10,20,1,0.525293827056885,9.99914813041687,1049.32332611084,"0",1,1,3
10,20,1,0,9.99935507774353,1049.32353210449,"Reward",0,0,3
10,8,0,0.215523958206177,0.217475891113281,1059.59192419052,"0",2,2,3
10,8,0,0,0.217671871185303,1059.59212017059,"Quit",0,0,3
10,8,0,0.216506004333496,0.219671010971069,1067.84414815903,"0",1,3,3
10,8,0,0,0.220910787582397,1067.84538817406,"Quit",0,0,3
10,4,0,0.0828511714935303,0.101912975311279,1075.97651100159,"0",0,5,3
10,4,0,0,0.102658987045288,1075.97725605965,"Quit",0,0,3
10,20,2,0.915586948394775,2.01594614982605,1086.02390909195,"0",2,4,3
10,20,1,0.747105121612549,4.01598906517029,1088.02395200729,"0",2,3,3
10,20,1,0.54615592956543,5.99919009208679,1090.00715303421,"0",1,1,3
10,20,1,0.681637048721313,8.01604413986206,1092.02400708199,"0",2,7,3
10,20,2,0.514674186706543,9.9994809627533,1094.0074441433,"0",0,7,3
10,20,2,0,9.99968409538269,1094.00764608383,"Forced travel",0,0,3
10,4,0,0.132479190826416,0.134314060211182,1102.17625713348,"0",2,7,3
10,4,0,0,0.134506940841675,1102.17645001411,"Quit",0,0,3
10,20,1,0.732073068618774,2.01560091972351,1112.22414517403,"0",2,6,3
10,20,1,0.482774972915649,3.99924492835999,1114.20778918266,"0",1,7,3
10,20,1,0.664093017578125,6.01596999168396,1116.22451400757,"0",2,5,3
10,20,1,0.445713996887207,7.99927592277527,1118.20782017708,"0",1,5,3
10,20,1,0.527355909347534,9.99947094917297,1120.20801520348,"0",1,6,3
10,20,1,0,9.9996919631958,1120.20823502541,"Reward",0,0,3
10,8,1,0.621402025222778,1.99968290328979,1132.25837397575,"0",1,6,3
10,8,1,0.764824151992798,4.01606798171997,1134.27475905418,"0",2,5,3
10,8,1,0.403398990631104,5.99977803230286,1136.25846910477,"0",1,4,3
10,8,1,0.664133071899414,8.01619482040405,1138.27488708496,"0",2,7,3
10,8,1,0.848331928253174,10.0161709785461,1140.27486205101,"0",2,6,3
10,8,1,0,10.0163798332214,1140.27507019043,"Reward",0,0,3
10,8,1,0.602789878845215,1.99945306777954,1152.32535099983,"0",0,2,3
10,8,1,0.665202140808105,4.01587915420532,1154.34177708626,"0",2,5,3
10,8,2,0.831645011901855,6.01592803001404,1156.34182620049,"0",2,2,3
10,8,1,0.516148090362549,7.99938011169434,1158.32527804375,"0",0,0,3
10,8,1,0.545553922653198,9.9994740486145,1160.32537198067,"0",1,2,3
10,8,1,0,9.99968314170837,1160.32558012009,"Reward",0,0,3
10,4,0,0.249134063720703,0.250843048095703,1170.6272521019,"0",2,1,3
10,4,0,0,0.251864910125732,1170.62827420235,"Quit",0,0,3
10,20,1,0.598641157150269,2.01577615737915,1180.6756939888,"0",2,4,3
10,20,1,0.681298971176147,4.01557207107544,1182.67548799515,"0",2,5,3
10,20,1,0.553190946578979,5.99911713600159,1184.65903401375,"0",0,6,3
10,20,1,0.431044101715088,7.99912619590759,1186.65904307365,"0",0,2,3
10,20,1,0.731600999832153,10.0158441066742,1188.67576098442,"0",2,1,3
10,20,1,0,10.0171580314636,1188.67707419395,"Reward",0,0,3
10,4,0,0.0329208374023438,0.0346438884735107,1198.76138019562,"0",2,5,3
10,4,0,0,0.0355930328369141,1198.76232814789,"Quit",0,0,3
10,20,1,0.514855146408081,1.99915409088135,1208.79276704788,"0",1,4,3
10,20,1,0.781786918640137,4.01567411422729,1210.80928707123,"0",2,3,3
10,20,2,0.714395999908447,6.01573801040649,1212.80935120583,"0",2,6,3
10,20,1,0.491306066513062,7.99954414367676,1214.793156147,"0",0,2,3
10,20,1,0.581907987594604,9.99876594543457,1216.79237914085,"0",1,6,3
10,20,1,0,9.99904012680054,1216.79265117645,"Reward",0,0,3
10,20,1,0.581821918487549,1.99901795387268,1228.84289598465,"0",1,2,3
10,20,1,0.463485956192017,3.99910497665405,1230.84298205376,"0",0,3,3
10,20,1,0.664144992828369,6.01599192619324,1232.85987019539,"0",2,6,3
10,20,1,0.424530982971191,7.9989709854126,1234.84284806252,"0",1,2,3
10,20,1,0.444725036621094,9.99936890602112,1236.84324502945,"0",0,3,3
10,20,1,0,9.99957799911499,1236.84345412254,"Reward",0,0,3
10,20,1,0.782086133956909,2.01575994491577,1248.91021513939,"0",2,3,3
10,20,1,0.546049833297729,3.99905705451965,1250.8935110569,"0",1,1,3
10,20,1,0.73157787322998,6.01576900482178,1252.9102241993,"0",2,3,3
10,20,1,0.524031162261963,7.99923014640808,1254.89368510246,"0",1,4,3
10,20,1,0.764364004135132,10.0161309242249,1256.91058707237,"0",2,0,3
10,20,1,0,10.0174469947815,1256.91190099716,"Reward",0,0,3
10,8,1,0.430737972259521,1.99895119667053,1269.01052808762,"0",1,4,3
10,8,1,0.403481006622314,3.99896621704102,1271.01054310799,"0",1,4,3
10,8,1,0.648422956466675,6.01567220687866,1273.02724909782,"0",2,1,3
10,8,2,0.765162944793701,8.01576805114746,1275.02734518051,"0",2,4,3
10,8,1,0.450194120407104,9.99909400939941,1277.01067113876,"0",1,5,3
10,8,1,0,9.99930310249329,1277.01087903976,"Reward",0,0,3
2,20,1,0.565183162689209,2.01569318771362,1349.51194810867,"0",2,0,4
2,20,1,0,2.01669311523438,1349.51294803619,"Reward",0,0,4
2,20,1,0.498466968536377,2.01563596725464,1369.57897806168,"0",2,2,4
2,20,1,0,2.01695895195007,1369.5803000927,"Reward",0,0,4
2,4,1,0.715209007263184,2.01561403274536,1389.64593911171,"0",2,6,4
2,4,1,0,2.01582384109497,1389.6461482048,"Reward",0,0,4
2,8,1,0.573323965072632,1.99916815757751,1409.69629311562,"0",1,1,4
2,8,1,0,1.99939203262329,1409.69651603699,"Reward",0,0,4
2,4,0,0.0661718845367432,0.0678889751434326,1427.81515002251,"0",2,6,4
2,4,0,0,0.0680880546569824,1427.81534910202,"Quit",0,0,4
2,8,1,0.43772292137146,1.9991660118103,1445.84693217278,"0",1,4,4
2,8,1,0,2.00013899803162,1445.84790420532,"Reward",0,0,4
2,20,1,0.521666049957275,1.99992704391479,1465.89726901054,"0",0,5,4
2,20,1,0,2.00206398963928,1465.89940500259,"Reward",0,0,4
2,20,1,0.520051002502441,1.99893498420715,1485.94744515419,"0",0,2,4
2,20,1,0,1.9991500377655,1485.94765901566,"Reward",0,0,4
2,8,1,0.500718116760254,1.99880385398865,1505.9978761673,"0",0,4,4
2,8,1,0,1.9998300075531,1505.99890112877,"Reward",0,0,4
2,8,1,0.670300006866455,2.00020885467529,1526.0483071804,"0",0,7,4
2,8,1,0,2.0012059211731,1526.04930305481,"Reward",0,0,4
2,4,1,0.680806159973145,2.01582217216492,1546.11516809464,"0",2,4,4
2,4,1,0,2.01602911949158,1546.11537408829,"Reward",0,0,4
2,4,1,0.550022125244141,1.99891901016235,1566.16549110413,"0",0,3,4
2,4,1,0,1.99914598464966,1566.16571712494,"Reward",0,0,4
2,8,1,0.780988216400146,2.01575493812561,1586.2327029705,"0",2,6,4
2,8,1,0,2.01788687705994,1586.23483419418,"Reward",0,0,4
2,4,0,0.382586002349854,0.384305000305176,1604.66815519333,"0",2,1,4
2,4,0,0,0.384500980377197,1604.66835212708,"Quit",0,0,4
2,20,1,0.865418910980225,2.01596093177795,1622.71676802635,"0",2,3,4
2,20,1,0,2.0169939994812,1622.71780014038,"Reward",0,0,4
2,20,1,0.681540012359619,2.01601886749268,1642.78380012512,"0",2,5,4
2,20,1,0,2.01622605323792,1642.7840051651,"Reward",0,0,4
2,8,1,0.782026052474976,2.01587700843811,1662.85077404976,"0",2,1,4
2,8,1,0,2.01608896255493,1662.85098409653,"Reward",0,0,4
2,4,0,0.223479986190796,0.242393016815186,1681.14345097542,"0",0,1,4
2,4,0,0,0.24421501159668,1681.1452729702,"Quit",0,0,4
2,20,1,0.714747190475464,2.01580810546875,1699.20122599602,"0",2,0,4
2,20,1,0,2.01601600646973,1699.20143318176,"Reward",0,0,4
2,8,1,0.715396165847778,2.01579189300537,1719.26841497421,"0",2,2,4
2,8,1,0,2.01600384712219,1719.26862597466,"Reward",0,0,4
2,20,1,0.5086510181427,1.99889016151428,1739.31854605675,"0",0,2,4
2,20,1,0,1.99990606307983,1739.31956100464,"Reward",0,0,4
2,4,0,0.0141770839691162,0.0188109874725342,1757.38884520531,"0",1,3,4
2,4,0,0,0.0189790725708008,1757.38901305199,"Quit",0,0,4
14,20,1,0.476241111755371,1.99939012527466,1781.28615808487,"0",0,0,5
14,20,1,0.472368955612183,3.99942708015442,1783.28619503975,"0",1,7,5
14,20,1,0.580770015716553,6.01616597175598,1785.30293416977,"0",2,7,5
14,20,1,0.714984893798828,8.01615595817566,1787.30292415619,"0",2,4,5
14,20,1,0.550166845321655,9.9995059967041,1789.28627514839,"0",1,1,5
14,20,1,0.631446838378906,12.0162501335144,1791.30301809311,"0",2,0,5
14,20,1,0.453489065170288,13.9997489452362,1793.28651714325,"0",0,7,5
14,20,1,0,13.9999570846558,1793.28672409058,"Reward",0,0,5
14,4,0,0.0810480117797852,0.0854060649871826,1799.4228990078,"0",1,4,5
14,4,0,0,0.0860931873321533,1799.42358613014,"Quit",0,0,5
14,20,1,0.451567888259888,1.99936389923096,1805.45353913307,"0",1,3,5
14,20,1,0.452835083007812,3.99913692474365,1807.45331215858,"0",1,3,5
14,20,1,0.504202842712402,5.99890398979187,1809.45307803154,"0",0,5,5
14,20,1,0.613497972488403,7.99900388717651,1811.45317912102,"0",0,6,5
14,20,1,0.563374042510986,9.99951100349426,1813.45368599892,"0",1,1,5
14,20,1,0.813549041748047,12.0157959461212,1815.46996998787,"0",2,2,5
14,20,1,0.548852920532227,13.9993510246277,1817.45352602005,"0",0,5,5
14,20,1,0,13.9995579719543,1817.4537320137,"Reward",0,0,5
14,4,0,0.259276151657104,0.278348922729492,1823.78285503387,"0",0,4,5
14,4,0,0,0.278494834899902,1823.78299999237,"Quit",0,0,5
14,8,1,0.41461706161499,1.99909281730652,1829.82034015656,"0",0,4,5
14,8,1,0.664106845855713,4.03034996986389,1831.85159707069,"0",2,6,5
14,8,1,0.433213949203491,5.99935388565063,1833.82060098648,"0",0,2,5
14,8,1,0.500419139862061,7.99899697303772,1835.82024407387,"0",0,5,5
14,8,1,0.698171854019165,10.0159358978271,1837.83718299866,"0",2,3,5
14,8,1,0.45024299621582,11.9992818832397,1839.82052898407,"0",0,1,5
14,8,1,0.798371076583862,14.0156228542328,1841.83687019348,"0",2,0,5
14,8,1,0,14.0158309936523,1841.83707714081,"Reward",0,0,5
14,8,1,0.698721885681152,2.01572513580322,1849.90407204628,"0",2,4,5
14,8,1,0.55113410949707,3.99885606765747,1851.88720297813,"0",1,6,5
14,8,1,0.632232904434204,6.01576709747314,1853.90411400795,"0",2,6,5
14,8,1,0.571650981903076,7.99913597106934,1855.88748311996,"0",1,0,5
14,8,1,0.714638948440552,10.0158491134644,1857.90419602394,"0",2,3,5
14,8,1,0.461420059204102,11.9990170001984,1859.88736414909,"0",1,3,5
14,8,1,0.679553031921387,14.0159120559692,1861.90425920486,"0",2,1,5
14,8,1,0,14.0161211490631,1861.90446615219,"Reward",0,0,5
14,4,0,0.165318965911865,0.167040824890137,1868.12243819237,"0",2,5,5
14,4,0,0,0.168356895446777,1868.12375402451,"Quit",0,0,5
14,20,1,0.598742961883545,2.01579618453979,1874.17118906975,"0",2,7,5
14,20,1,0.492895841598511,3.9991500377655,1876.15454316139,"0",0,6,5
14,20,1,0.441869974136353,5.9991340637207,1878.15452718735,"0",1,5,5
14,20,1,0.400269031524658,7.99926900863647,1880.15466213226,"0",1,1,5
14,20,1,0.412729978561401,9.99928212165833,1882.15467500687,"0",1,7,5
14,20,1,0.427735090255737,11.9990921020508,1884.15448498726,"0",0,1,5
14,20,1,0.443896055221558,13.9993262290955,1886.1547191143,"0",0,3,5
14,20,1,0,14.0014641284943,1886.15685606003,"Reward",0,0,5
14,8,0,0.228734016418457,0.235192060470581,1892.44097709656,"0",1,6,5
14,8,0,0,0.235338926315308,1892.44112300873,"Quit",0,0,5
14,8,0,0.232450008392334,0.234286785125732,1896.70687317848,"0",2,3,5
14,8,0,0,0.234488964080811,1896.70707511902,"Quit",0,0,5
14,4,0,0.249258041381836,0.251091003417969,1900.99001407623,"0",2,4,5
14,4,0,0,0.25128698348999,1900.9902100563,"Quit",0,0,5
14,20,1,0.474740028381348,1.99918103218079,1907.02202916145,"0",1,4,5
14,20,1,0.531512975692749,3.9986891746521,1909.02153706551,"0",0,7,5
14,20,1,0.331691026687622,5.99895119667053,1911.02179813385,"0",0,1,5
14,20,1,0.490692138671875,7.99900507926941,1913.02185297012,"0",1,6,5
14,20,1,0.47197413444519,9.99904608726501,1915.02189397812,"0",0,4,5
14,20,1,0.42432713508606,11.9990570545197,1917.02190613747,"0",1,6,5
14,20,1,0.612623929977417,14.0154910087585,1919.03833913803,"0",2,0,5
14,20,1,0,14.0156991481781,1919.03854513168,"Reward",0,0,5
14,20,1,0.698601007461548,2.01561284065247,1927.10541415215,"0",2,3,5
14,20,2,0.534479856491089,3.99897003173828,1929.08877110481,"0",1,6,5
14,20,1,0.6651611328125,6.01570582389832,1931.10550713539,"0",2,0,5
14,20,1,0.535563945770264,7.99908399581909,1933.08888506889,"0",0,5,5
14,20,1,0.681737899780273,10.0155439376831,1935.10534405708,"0",2,1,5
14,20,1,0.462484121322632,11.9991459846497,1937.0889480114,"0",1,4,5
14,20,1,0.897375822067261,14.0158488750458,1939.10564899445,"0",2,7,5
14,20,1,0,14.0160570144653,1939.10585713387,"Reward",0,0,5
14,8,1,0.538206100463867,1.99894285202026,1947.15559220314,"0",1,7,5
14,8,1,0.496309041976929,3.99899387359619,1949.15564417839,"0",0,2,5
14,8,1,0.78154993057251,6.01614904403687,1951.17279911041,"0",2,1,5
14,8,1,0.406274080276489,7.9991409778595,1953.15579104424,"0",0,1,5
14,8,1,0.460342884063721,9.99887704849243,1955.15552711487,"0",0,1,5
14,8,1,0.377687931060791,11.9993460178375,1957.15599608421,"0",1,1,5
14,8,1,0.531673908233643,14.0154609680176,1959.17211103439,"0",2,4,5
14,8,1,0,14.0156679153442,1959.17231702805,"Reward",0,0,5
14,8,0,0.213388204574585,0.232686042785645,1965.45635914803,"0",0,7,5
14,8,0,0,0.232822895050049,1965.45649600029,"Quit",0,0,5
14,4,0,0.282410860061646,0.284241914749146,1969.77481818199,"0",2,5,5
14,4,0,0,0.284442901611328,1969.77501916885,"Quit",0,0,5
14,4,0,0.214092016220093,0.215935945510864,1974.02323317528,"0",2,5,5
14,4,0,0,0.216132164001465,1974.02342915535,"Quit",0,0,5
14,20,1,0.682164907455444,2.01546287536621,1980.0727391243,"0",2,4,5
14,20,1,0.714456081390381,4.0158109664917,1982.07308697701,"0",2,6,5
14,20,1,0.458962917327881,5.99919605255127,1984.05647110939,"0",0,3,5
14,20,1,0.473474979400635,7.99917387962341,1986.05644917488,"0",0,2,5
14,20,1,0.965034961700439,10.0159220695496,1988.07319808006,"0",2,0,5
14,20,1,0.484441995620728,11.9995429515839,1990.05681800842,"0",0,0,5
14,20,1,0.398128986358643,13.9993989467621,1992.05667519569,"0",1,5,5
14,20,1,0,14.0007081031799,1992.05798316002,"Reward",0,0,5
14,20,1,0.594828128814697,1.999675989151,2000.10674405098,"0",1,1,5
14,20,1,0.764960050582886,4.01632690429688,2002.12339615822,"0",2,7,5
14,20,1,0.478349924087524,5.99973106384277,2004.10680007935,"0",0,6,5
14,20,1,0.518064022064209,7.99977087974548,2006.10684013367,"0",0,3,5
14,20,1,0.410120964050293,9.99977207183838,2008.10684108734,"0",1,5,5
14,20,1,0.697786092758179,12.0165479183197,2010.12361717224,"0",2,7,5
14,20,1,0.496468067169189,13.9998800754547,2012.10694909096,"0",0,5,5
14,20,1,0,14.0000898838043,2012.10715818405,"Reward",0,0,5
14,4,0,0.0742161273956299,0.0786519050598145,2018.23663020134,"0",1,4,5
14,4,0,0,0.0798978805541992,2018.23787498474,"Quit",0,0,5
14,8,0,0.632396221160889,0.634124994277954,2022.90898108482,"0",2,5,5
14,8,0,0,0.634325981140137,2022.90918207169,"Quit",0,0,5
14,4,0,0.199227094650269,0.20094895362854,2027.1423060894,"0",2,2,5
14,4,0,0,0.201144933700562,2027.1425011158,"Quit",0,0,5
14,20,1,0.715167045593262,2.01556897163391,2033.19058299065,"0",2,5,5
14,20,1,0.487783908843994,3.99905109405518,2035.17406606674,"0",0,6,5
14,20,1,0.730200052261353,6.01567602157593,2037.19069099426,"0",2,3,5
14,20,1,0.574315071105957,7.99908804893494,2039.17410302162,"0",1,6,5
14,20,1,0.781543970108032,10.0159070491791,2041.19092202187,"0",2,2,5
14,20,1,0.640537977218628,11.9991750717163,2043.17419099808,"0",0,2,5
14,20,1,0.569998979568481,13.9991290569305,2045.17414307594,"0",0,5,5
14,20,1,0,13.9993369579315,2045.17435097694,"Reward",0,0,5
14,8,0,0.185432195663452,0.204248905181885,2051.42959904671,"0",0,2,5
14,8,0,0,0.205492973327637,2051.43084216118,"Quit",0,0,5
14,8,0,0.217706918716431,0.236922025680542,2055.69570302963,"0",0,6,5
14,8,0,0,0.237065076828003,2055.69584512711,"Quit",0,0,5
14,20,1,0.681633949279785,2.01558208465576,2061.7409260273,"0",2,2,5
14,20,1,0.44897198677063,3.99782395362854,2063.72316813469,"0",0,4,5
14,20,1,0.732666969299316,6.01587700843811,2065.7412211895,"0",2,2,5
14,20,1,0.68099308013916,8.01569795608521,2067.74104213715,"0",2,6,5
14,20,2,0.411254167556763,9.9992880821228,2069.72463202477,"0",1,2,5
14,20,1,0.457655906677246,11.9993360042572,2071.72468018532,"0",0,6,5
14,20,1,0.445152997970581,13.9993290901184,2073.72467303276,"0",1,1,5
14,20,1,0,13.9995391368866,2073.72488117218,"Reward",0,0,5
14,20,1,0.594121932983398,1.99953198432922,2081.7751390934,"0",1,2,5
14,20,1,0.545537948608398,3.99926090240479,2083.77486920357,"0",0,0,5
14,20,1,0.965033054351807,6.01603579521179,2085.79164218903,"0",2,2,5
14,20,1,0.606905221939087,7.99936389923096,2087.7749710083,"0",1,3,5
14,20,1,0.455565214157104,9.99934387207031,2089.77495098114,"0",1,3,5
14,20,1,0.528846979141235,11.999440908432,2091.7750480175,"0",1,7,5
14,20,1,0.630410194396973,13.9994828701019,2093.77508997917,"0",1,3,5
14,20,1,0,13.9997069835663,2093.77531313896,"Reward",0,0,5
14,8,0,0.309820890426636,0.313241958618164,2100.13924217224,"0",1,2,5
14,8,0,0,0.313936948776245,2100.1399371624,"Quit",0,0,5
14,4,0,0.215831995010376,0.217552185058594,2104.39364814758,"0",2,7,5
14,4,0,0,0.217754125595093,2104.39385008812,"Quit",0,0,5
14,4,0,0.215920925140381,0.217656850814819,2108.64401817322,"0",2,7,5
14,4,0,0,0.21785306930542,2108.64421415329,"Quit",0,0,5
14,20,1,0.575984954833984,1.99949288368225,2114.67572999001,"0",1,1,5
14,20,1,0.61421799659729,4.01565289497375,2116.6918900013,"0",2,7,5
14,20,1,0.747842073440552,6.01592087745667,2118.69215798378,"0",2,5,5
14,20,1,0.914377927780151,8.01598787307739,2120.69222402573,"0",2,6,5
14,20,1,0.69842791557312,10.0160109996796,2122.692248106,"0",2,1,5
14,20,1,0.449576139450073,11.9994039535522,2124.67564105988,"0",0,3,5
14,20,1,0.476876974105835,13.9994239807129,2126.67566013336,"0",1,3,5
14,20,1,0,13.9996378421783,2126.67587399483,"Reward",0,0,5
14,8,0,0.146808862686157,0.149030208587646,2132.87566614151,"0",2,6,5
14,8,0,0,0.149231195449829,2132.8758661747,"Quit",0,0,5
14,4,0,0.163892030715942,0.183303833007812,2137.09349298477,"0",0,7,5
14,4,0,0,0.184553861618042,2137.09474205971,"Quit",0,0,5
14,4,0,0.155645132064819,0.160079002380371,2141.28707313538,"0",1,1,5
14,4,0,0,0.160218000411987,2141.28721117973,"Quit",0,0,5
14,20,1,0.748621940612793,2.01585102081299,2147.34271502495,"0",2,2,5
14,20,1,0.512084007263184,3.99916696548462,2149.32603120804,"0",1,3,5
14,20,1,0.43675684928894,5.99903297424316,2151.32589697838,"0",0,0,5
14,20,1,0.376184940338135,7.99923396110535,2153.32609820366,"0",0,5,5
14,20,1,0.66485595703125,10.0158100128174,2155.34267306328,"0",2,5,5
14,20,1,0.381286859512329,11.9993369579315,2157.32620120049,"0",1,4,5
14,20,1,0.76350212097168,14.0159339904785,2159.34279799461,"0",2,0,5
14,20,1,0,14.0161390304565,2159.34300208092,"Reward",0,0,5
14,8,1,0.462146043777466,1.99919295310974,2167.39305114746,"0",0,5,5
14,8,1,0.401291847229004,3.99919700622559,2169.39305520058,"0",1,3,5
14,8,1,0.763712882995605,6.01588797569275,2171.40974617004,"0",2,0,5
14,8,1,0.363461971282959,7.99930906295776,2173.39316701889,"0",1,4,5
14,8,1,0.468199014663696,9.99905300140381,2175.39291119576,"0",1,5,5
14,8,1,0.419743061065674,11.9993281364441,2177.3931851387,"0",0,0,5
14,8,1,0.648355007171631,14.0160720348358,2179.40992999077,"0",2,2,5
14,8,1,0,14.0162799358368,2179.41013717651,"Reward",0,0,5
14,4,0,0.254611968994141,0.257491111755371,2185.71830010414,"0",1,0,5
14,4,0,0,0.258252143859863,2185.71906113625,"Quit",0,0,5
14,20,1,0.451590061187744,1.99909400939941,2191.74344205856,"0",0,1,5
14,20,1,0.526410102844238,3.99916386604309,2193.74351215363,"0",1,7,5
14,20,1,0.407697916030884,5.99916005134583,2195.74350810051,"0",1,3,5
14,20,1,0.475010871887207,7.99918389320374,2197.74353218079,"0",0,3,5
14,20,1,0.399132013320923,9.99927997589111,2199.74362802505,"0",0,5,5
14,20,1,0.46415901184082,11.9992859363556,2201.74363398552,"0",1,5,5
14,20,1,0.748266935348511,14.0160100460052,2203.76035809517,"0",2,3,5
14,20,1,0,14.0162169933319,2203.76056408882,"Reward",0,0,5
10,8,2,0.997002124786377,2.01541805267334,2217.74372911453,"0",2,4,6
10,8,1,0.553195953369141,3.99929094314575,2219.7276031971,"0",0,0,6
10,8,1,0.436990976333618,5.9988579750061,2221.72716903687,"0",0,3,6
10,8,1,0.560862064361572,7.99905490875244,2223.72736597061,"0",1,2,6
10,8,1,0.4616379737854,9.99911999702454,2225.72743010521,"0",0,3,6
10,8,1,0,9.99933004379272,2225.72764015198,"Reward",0,0,6
10,4,0,0.0095670223236084,0.0329010486602783,2235.81130313873,"0",0,1,6
10,4,0,0,0.0330989360809326,2235.81150102615,"Quit",0,0,6
10,4,0,0.224338054656982,0.243190050125122,2244.08837413788,"0",0,0,6
10,4,0,0,0.24443507194519,2244.08961820602,"Quit",0,0,6
10,20,1,0.765180826187134,2.01531291007996,2254.14421415329,"0",2,1,6
10,20,1,0.390879154205322,3.99900889396667,2256.12791013718,"0",0,0,6
10,20,1,0.798418998718262,6.01554203033447,2258.14444303513,"0",2,2,6
10,20,1,0.582041025161743,8.0157790184021,2260.14467906952,"0",2,4,6
10,20,1,0.475681781768799,9.99942088127136,2262.12832212448,"0",0,4,6
10,20,1,0,9.99963092803955,2262.12853097916,"Reward",0,0,6
10,8,0,0.132361173629761,0.134219884872437,2272.31327319145,"0",2,1,6
10,8,0,0,0.134387016296387,2272.31344008446,"Quit",0,0,6
10,20,1,0.422337055206299,1.99914979934692,2282.34504914284,"0",0,7,6
10,20,1,0.712970972061157,4.01587891578674,2284.36177802086,"0",2,3,6
10,20,1,0.391442060470581,5.99923896789551,2286.34513807297,"0",0,4,6
10,20,1,0.409770011901855,7.99925589561462,2288.34515500069,"0",1,7,6
10,20,1,0.519857168197632,9.9993097782135,2290.3452091217,"0",0,7,6
10,20,1,0,9.99951982498169,2290.34541702271,"Reward",0,0,6
10,20,1,0.560045003890991,1.99915504455566,2302.39540910721,"0",1,6,6
10,20,1,0.356971979141235,3.99921202659607,2304.39546704292,"0",1,4,6
10,20,1,0.483556032180786,5.99924087524414,2306.39549612999,"0",0,0,6
10,20,1,0.438262939453125,7.9992790222168,2308.39553403854,"0",1,5,6
10,20,1,0.94828987121582,10.0160300731659,2310.41228508949,"0",2,2,6
10,20,1,0,10.0162370204926,2310.41249108315,"Reward",0,0,6
10,8,0,0.216248989105225,0.218107938766479,2320.68127298355,"0",2,6,6
10,8,0,0,0.218305110931396,2320.68147015572,"Quit",0,0,6
10,4,0,0.0322921276092529,0.0355391502380371,2328.749158144,"0",1,3,6
10,4,0,0,0.0356760025024414,2328.74929499626,"Quit",0,0,6
10,4,0,0.298825979232788,0.300799131393433,2337.08122014999,"0",2,4,6
10,4,0,0,0.30180811882019,2337.08222913742,"Quit",0,0,6
10,20,1,0.763904094696045,2.01559996604919,2347.12950515747,"0",2,6,6
10,20,1,0.63192892074585,4.0155029296875,2349.12940812111,"0",2,1,6
10,20,1,0.664914131164551,6.01551198959351,2351.12941718102,"0",2,6,6
10,20,1,0.350788831710815,7.99911403656006,2353.11301898956,"0",1,5,6
10,20,1,0.540272235870361,9.99911713600159,2355.113022089,"0",1,6,6
10,20,1,0,10.0004551410675,2355.1143591404,"Reward",0,0,6
10,8,1,0.493427991867065,1.99908018112183,2367.16321110725,"0",0,0,6
10,8,1,0.381545066833496,3.99914908409119,2369.16328001022,"0",0,4,6
10,8,1,0.681231021881104,6.01586818695068,2371.17999911308,"0",2,7,6
10,8,1,0.399161100387573,7.999263048172,2373.1633939743,"0",0,6,6
10,8,1,0.481791973114014,10.0159230232239,2375.18005418777,"0",2,5,6
10,8,1,0,10.0161340236664,2375.18026399612,"Reward",0,0,6
10,4,0,0.0809249877929688,0.0827701091766357,2385.31376814842,"0",2,0,6
10,4,0,0,0.0829689502716064,2385.31396698952,"Quit",0,0,6
10,8,1,0.731978893280029,2.01575016975403,2395.36373806,"0",2,5,6
10,8,1,0.504648923873901,3.99940800666809,2397.34739613533,"0",0,3,6
10,8,1,0.403934955596924,5.99916005134583,2399.34714818001,"0",0,4,6
10,8,2,0.369220018386841,7.99919700622559,2401.34718513489,"0",0,3,6
10,8,1,0.491511821746826,9.99920606613159,2403.34719419479,"0",0,3,6
10,8,1,0,10.0005211830139,2403.34850811958,"Reward",0,0,6
10,20,1,0.728195190429688,1.99911284446716,2415.39741516113,"0",1,2,6
10,20,1,0.679975986480713,4.01588702201843,2417.41418910027,"0",2,6,6
10,20,1,0.402951002120972,5.99916982650757,2419.39747214317,"0",1,3,6
10,20,1,0.581307172775269,8.01593899726868,2421.41424107552,"0",2,0,6
10,20,1,0.51497483253479,10.0159859657288,2423.41428804398,"0",2,6,6
10,20,1,0,10.0161938667297,2423.4144949913,"Reward",0,0,6
10,8,0,0.104369163513184,0.109791994094849,2433.5750181675,"0",1,1,6
10,8,0,0,0.109930038452148,2433.57515501976,"Quit",0,0,6
10,4,0,0.265804052352905,0.267571926116943,2441.88295006752,"0",2,5,6
10,4,0,0,0.26777195930481,2441.88315010071,"Quit",0,0,6
10,20,1,0.503502130508423,1.99894785881042,2451.91452312469,"0",0,0,6
10,20,1,0.519665956497192,3.9991819858551,2453.91475701332,"0",1,1,6
10,20,1,0.419589996337891,5.99920392036438,2455.91477918625,"0",0,6,6
10,20,1,0.647447109222412,8.01592993736267,2457.93150520325,"0",2,7,6
10,20,1,0.579922914505005,10.0159270763397,2459.93150210381,"0",2,0,6
10,20,1,0,10.016135931015,2459.93171000481,"Reward",0,0,6
10,20,1,0.576390981674194,1.99940204620361,2471.9818110466,"0",1,1,6
10,20,1,0.467616081237793,3.99905705451965,2473.98146605492,"0",0,3,6
10,20,1,0.632101058959961,6.01605892181396,2475.99846816063,"0",2,6,6
10,20,1,0.597305059432983,8.01614308357239,2477.99855113029,"0",2,7,6
10,20,1,0.647704124450684,10.0161259174347,2479.99853515625,"0",2,4,6
10,20,1,0,10.0174388885498,2479.99984717369,"Reward",0,0,6
10,20,1,0.494218111038208,1.99881887435913,2492.04838418961,"0",0,2,6
10,20,1,0.504583120346069,3.99925303459167,2494.04881811142,"0",0,1,6
10,20,1,0.438989162445068,5.99928283691406,2496.04884815216,"0",1,4,6
10,20,1,0.564378976821899,8.01578187942505,2498.06534600258,"0",2,6,6
10,20,1,0.514863967895508,9.99937582015991,2500.04894113541,"0",1,6,6
10,20,1,0,9.99958491325378,2500.04914903641,"Reward",0,0,6
10,8,1,0.43293309211731,1.99889397621155,2512.09891414642,"0",0,2,6
10,8,1,0.377348899841309,3.99891996383667,2514.09894013405,"0",0,0,6
10,8,1,0.448724031448364,6.01583909988403,2516.11585903168,"0",2,7,6
10,8,1,0.523551940917969,7.99919605255127,2518.09921598434,"0",1,0,6
10,8,1,0.364809989929199,9.99885702133179,2520.09887719154,"0",0,1,6
10,8,1,0,9.99906301498413,2520.0990819931,"Reward",0,0,6
10,4,0,0.133190870285034,0.135049819946289,2530.2850291729,"0",2,5,6
10,4,0,0,0.135247945785522,2530.28522706032,"Quit",0,0,6
10,4,0,0.148804903030396,0.150539875030518,2538.46783518791,"0",2,1,6
10,4,0,0,0.150735855102539,2538.46803116798,"Quit",0,0,6
10,8,1,0.532179117202759,2.01590394973755,2548.51651406288,"0",2,7,6
10,8,2,0.445518016815186,3.99920296669006,2550.49981307983,"0",1,2,6
10,8,1,0.948271989822388,6.01592779159546,2552.51653718948,"0",2,6,6
10,8,1,0.446265935897827,7.99924278259277,2554.49985313416,"0",0,2,6
10,8,1,0.554682970046997,9.99925994873047,2556.49987006187,"0",0,6,6
10,8,1,0,10.0005848407745,2556.50119400024,"Reward",0,0,6
10,20,1,0.553861141204834,1.9994068145752,2568.55017113686,"0",1,2,6
10,20,1,0.931599855422974,4.01583790779114,2570.56660199165,"0",2,2,6
10,20,1,0.665252923965454,6.01606297492981,2572.56682705879,"0",2,6,6
10,20,1,0.4599449634552,7.99947190284729,2574.55023598671,"0",1,0,6
10,20,1,0.698417186737061,10.0161769390106,2576.56694102287,"0",2,0,6
10,20,1,0,10.0171918869019,2576.56795501709,"Reward",0,0,6
10,4,0,0.136677980422974,0.155344009399414,2586.77338314056,"0",0,0,6
10,4,0,0,0.15548300743103,2586.7735221386,"Quit",0,0,6
10,8,0,0.27121114730835,0.290139198303223,2595.0914721489,"0",0,0,6
10,8,0,0,0.290286064147949,2595.09161901474,"Quit",0,0,6
10,8,0,0.216400861740112,0.235356092453003,2603.35395002365,"0",0,4,6
10,8,0,0,0.235504150390625,2603.35409808159,"Quit",0,0,6
10,4,0,0.312260150909424,0.316687107086182,2611.70196008682,"0",1,4,6
10,4,0,0,0.316825151443481,2611.70209717751,"Quit",0,0,6
10,20,1,0.598342180252075,2.01547622680664,2621.75057506561,"0",2,7,6
10,20,1,0.498893022537231,4.01567721366882,2623.7507750988,"0",2,0,6
10,20,1,0.58204197883606,6.01597619056702,2625.7510740757,"0",2,2,6
10,20,1,0.513203859329224,7.99938821792603,2627.73448610306,"0",0,5,6
10,20,1,0.454260110855103,9.99941921234131,2629.73451709747,"0",1,1,6
10,20,1,0,9.99962520599365,2629.73472213745,"Reward",0,0,6
