"Handling","Reward","Choice","Task.RT","Choice.RT","Experiment.Time","Trial.Outcome","Task.Type","Task.Setup","Block"
10,20,1,0.894129991531372,1.99951100349426,9.06321501731873,"0",0,0,1
10,20,1,0.534757852554321,3.99977397918701,11.0634789466858,"0",0,3,1
10,20,1,0.944332838058472,6.0164680480957,13.0801720619202,"0",2,2,1
10,20,1,0.719358921051025,7.99957609176636,15.0632798671722,"0",0,3,1
10,20,2,1.00006699562073,9.99939703941345,17.0631010532379,"0",0,2,1
10,20,1,0,9.99960803985596,17.0633108615875,"Reward",0,0,1
10,4,2,1.00006890296936,1.99958300590515,29.1138529777527,"0",0,5,1
10,4,2,0.0078279972076416,3.99920988082886,31.1134810447693,"0",0,1,1
10,4,2,0,3.99946284294128,31.1137318611145,"Forced travel",0,0,1
10,8,1,0.994428873062134,1.99918508529663,41.1467819213867,"0",1,2,1
10,8,2,0.995665073394775,4.01596808433533,43.1635639667511,"0",2,2,1
10,8,1,0.843477964401245,5.9991979598999,45.1467950344086,"0",1,6,1
10,8,1,0.6039879322052,7.99919986724854,47.1467950344086,"0",1,1,1
10,8,1,0.601583003997803,9.9990119934082,49.1466069221497,"0",1,2,1
10,8,1,0,9.99923491477966,49.1468298435211,"Reward",0,0,1
10,20,2,0.747690916061401,2.01622891426086,61.2301740646362,"0",2,3,1
10,20,1,0.637135982513428,3.99961709976196,63.2135629653931,"0",0,0,1
10,20,1,0.748143911361694,6.01627707481384,65.2302229404449,"0",2,5,1
10,20,1,0.656798124313354,7.99954104423523,67.2134869098663,"0",1,6,1
10,20,2,0.881303071975708,10.0158751010895,69.2298200130463,"0",2,1,1
10,20,2,0,10.016077041626,69.2300219535828,"Forced travel",0,0,1
10,8,1,0.66481614112854,2.0161759853363,79.2801568508148,"0",2,4,1
10,8,1,0.812639951705933,3.99929189682007,81.2632720470428,"0",1,7,1
10,8,1,0.671396017074585,5.99952697753906,83.2635078430176,"0",1,1,1
10,8,1,0.72671103477478,7.9995219707489,85.2635040283203,"0",1,4,1
10,8,1,0.755770206451416,9.99951601028442,87.2634980678558,"0",0,4,1
10,8,1,0,10.0006430149078,87.264622926712,"Reward",0,0,1
10,4,1,0.774533987045288,1.99928617477417,99.3135008811951,"0",0,3,1
10,4,1,0.706330060958862,3.99893307685852,101.313147068024,"0",0,2,1
10,4,1,0.514168977737427,5.99933218955994,103.313545942307,"0",0,6,1
10,4,2,0.996742010116577,8.0156512260437,105.32986497879,"0",2,2,1
10,4,1,0.765500068664551,10.0158870220184,107.330101966858,"0",2,7,1
10,4,1,0,10.0161490440369,107.330361843109,"Reward",0,0,1
10,4,1,0.69300103187561,1.99916386604309,119.380202054977,"0",0,2,1
10,4,1,0.630285024642944,3.99911594390869,121.380154848099,"0",0,0,1
10,4,1,0.682158946990967,5.9990918636322,123.380131006241,"0",0,4,1
10,4,1,0.746705055236816,8.01570081710815,125.396739959717,"0",2,6,1
10,4,1,0.731325149536133,10.0156919956207,127.396730899811,"0",2,2,1
10,4,1,0,10.0159518718719,127.396988868713,"Reward",0,0,1
10,20,1,0.966685056686401,1.99938488006592,139.446738958359,"0",1,1,1
10,20,1,0.568701982498169,3.99925494194031,141.446608066559,"0",1,6,1
10,20,1,0.479454040527344,5.99951195716858,143.446863889694,"0",0,2,1
10,20,1,0.785157918930054,7.99925303459167,145.446605920792,"0",0,4,1
10,20,1,0.73179292678833,10.0160610675812,147.463414907455,"0",2,7,1
10,20,1,0,10.0183019638062,147.465653896332,"Reward",0,0,1
10,8,1,0.694805860519409,1.99996614456177,159.513489961624,"0",1,0,1
10,8,2,0.813899040222168,3.99967813491821,161.513201951981,"0",2,0,1
10,8,1,0.553215026855469,5.99992394447327,163.513448953629,"0",0,6,1
10,8,1,0.681557178497314,8.01663208007812,165.530156850815,"0",2,4,1
10,8,1,0.819170951843262,9.99975204467773,167.51327586174,"0",1,0,1
10,8,1,0,9.99996304512024,167.513485908508,"Reward",0,0,1
10,4,0,1.16766500473022,1.16770696640015,178.731850862503,"0",2,5,1
10,4,0,0,1.16880202293396,178.732945919037,"Quit",0,0,1
10,8,1,0.652700901031494,1.99925804138184,188.763473987579,"0",0,3,1
10,8,1,0.7133469581604,4.01570200920105,190.779917001724,"0",2,4,1
10,8,2,0.996968030929565,6.01570820808411,192.779922962189,"0",2,6,1
10,8,1,0.99734902381897,7.99924921989441,194.763463973999,"0",2,4,1
10,8,1,0.582311868667603,9.99924206733704,196.76345705986,"0",0,1,1
10,8,1,0,9.99950504302979,196.76371884346,"Reward",0,0,1
10,20,1,0.593516111373901,1.99913501739502,208.81346988678,"0",0,2,1
10,20,1,0.671123027801514,3.99883008003235,210.813164949417,"0",1,7,1
10,20,1,0.724130868911743,5.99910807609558,212.813443899155,"0",0,4,1
10,20,1,0.914490938186646,8.01575493812561,214.830090999603,"0",2,7,1
10,20,1,0.995153188705444,9.99862194061279,216.812957048416,"0",1,1,1
10,20,1,0,9.99993896484375,216.814272880554,"Reward",0,0,1
10,20,1,0.667371034622192,1.99955701828003,228.86376786232,"0",0,7,1
10,20,1,0.440231084823608,3.99885702133179,230.863067865372,"0",0,4,1
10,20,2,0.997189044952393,6.01588892936707,232.880099058151,"0",2,5,1
10,20,1,0.680755853652954,8.01590394973755,234.880115032196,"0",2,0,1
10,20,1,0.701824903488159,9.99901294708252,236.863221883774,"0",1,1,1
10,20,1,0,10.0000660419464,236.864274978638,"Reward",0,0,1
10,20,1,0.605376005172729,1.99943995475769,248.91348195076,"0",0,1,1
10,20,1,0.535194873809814,3.9994421005249,250.913482904434,"0",0,3,1
10,20,1,0.614315032958984,6.01576113700867,252.929801940918,"0",2,5,1
10,20,1,0.680317878723145,8.01611399650574,254.930155038834,"0",2,0,1
10,20,1,0.749714851379395,9.99879813194275,256.912838935852,"0",1,0,1
10,20,1,0,9.99900603294373,256.913045883179,"Reward",0,0,1
10,8,1,0.765733003616333,2.016441822052,268.980541944504,"0",2,7,1
10,8,1,0.666409969329834,3.99934697151184,270.963445901871,"0",1,4,1
10,8,1,0.638603925704956,5.99934387207031,272.963443994522,"0",1,0,1
10,8,1,0.946994066238403,8.01576805114746,274.979866981506,"0",2,7,1
10,8,1,0.571784973144531,9.99930286407471,276.963402986526,"0",0,3,1
10,8,1,0,10.0006699562073,276.964767932892,"Reward",0,0,1
10,8,1,0.692606210708618,1.99912786483765,289.013380050659,"0",0,4,1
10,8,1,0.714922904968262,4.01561689376831,291.02986907959,"0",2,1,1
10,8,1,0.665027856826782,6.01584482192993,293.030097007751,"0",2,2,1
10,8,1,0.643275022506714,7.99916696548462,295.013419866562,"0",0,0,1
10,8,1,0.814483165740967,10.0157608985901,297.030014038086,"0",2,4,1
10,8,1,0,10.0168888568878,297.031139850616,"Reward",0,0,1
10,4,1,0.574928998947144,1.99848198890686,309.079504013062,"0",0,0,1
10,4,1,0.936001062393188,3.99884510040283,311.079866886139,"0",0,2,1
10,4,1,0.548723936080933,5.99834418296814,313.079365968704,"0",0,0,1
10,4,1,0.50218391418457,7.99807810783386,315.079098939896,"0",1,4,1
10,4,1,0.531018972396851,10.0156111717224,317.096632957458,"0",2,4,1
10,4,1,0,10.0158150196075,317.096835851669,"Reward",0,0,1
10,4,2,1.00003099441528,1.99943113327026,329.146646976471,"0",1,5,1
10,4,0,0.647310972213745,2.65126299858093,329.798478841782,"0",2,7,1
10,4,0,0,2.6514630317688,329.798677921295,"Quit",0,0,1
10,4,0,0.765228033065796,0.767053842544556,338.598276853561,"0",2,4,1
10,4,0,0,0.767252922058105,338.598474979401,"Quit",0,0,1
10,8,1,0.587211847305298,1.99908995628357,348.629893064499,"0",0,4,1
10,8,2,1.00008201599121,3.99866199493408,350.629464864731,"0",1,6,1
10,8,1,0.814949035644531,6.01576209068298,352.64656496048,"0",2,5,1
10,8,1,0.763503074645996,8.01575899124146,354.646561861038,"0",2,4,1
10,8,2,0.78099799156189,10.0160429477692,356.646847009659,"0",2,6,1
10,8,2,0,10.0171349048615,356.647937059402,"Forced travel",0,0,1
10,8,1,0.521358013153076,1.99886798858643,366.679884910583,"0",1,5,1
10,8,2,0.764472961425781,4.0155930519104,368.696609020233,"0",2,4,1
10,8,1,0.828894853591919,5.99915599822998,370.680172920227,"0",1,6,1
10,8,1,0.565438032150269,7.99908804893494,372.680105924606,"0",0,4,1
10,8,1,0.708526849746704,9.99890303611755,374.679919958115,"0",1,1,1
10,8,1,0,9.99911093711853,374.680126905441,"Reward",0,0,1
10,20,2,0.998025894165039,2.01660990715027,386.746883869171,"0",2,1,1
10,20,2,0.0123717784881592,4.01655697822571,388.746830940247,"0",2,5,1
10,20,2,0,4.01675701141357,388.74703001976,"Forced travel",0,0,1
10,4,0,1.05112791061401,1.05116891860962,397.831522941589,"0",1,6,1
10,4,0,0,1.05141282081604,397.831766843796,"Quit",0,0,1
10,20,1,0.601028919219971,1.9994490146637,407.863483905792,"0",1,6,1
10,20,1,0.571402788162231,3.99940490722656,409.863440990448,"0",0,0,1
10,20,1,0.81392502784729,6.01603198051453,411.880066871643,"0",2,5,1
10,20,2,0.648455858230591,8.01606893539429,413.880104064941,"0",2,7,1
10,20,1,0.476177930831909,9.99941897392273,415.863455057144,"0",1,4,1
10,20,1,0,9.99967789649963,415.863712072372,"Reward",0,0,1
14,20,1,0.851606845855713,1.99823999404907,434.096406936646,"0",0,2,2
14,20,1,0.740525960922241,3.99825096130371,436.096418857574,"0",1,2,2
14,20,1,0.558895826339722,5.99797701835632,438.096143960953,"0",0,3,2
14,20,1,0.631281137466431,8.01500797271729,440.113174915314,"0",2,4,2
14,20,1,0.697428941726685,9.9985249042511,442.09669303894,"0",0,7,2
14,20,1,0.699190139770508,11.9986670017242,444.096833944321,"0",1,6,2
14,20,1,0.532634019851685,13.9986009597778,446.096767902374,"0",0,0,2
14,20,1,0,13.9988598823547,446.097025871277,"Reward",0,0,2
14,20,1,0.579282999038696,1.99930286407471,454.146836996078,"0",1,7,2
14,20,1,0.577303886413574,3.99897789955139,456.146512031555,"0",1,3,2
14,20,1,0.519037961959839,5.99922204017639,458.146756887436,"0",0,3,2
14,20,1,0.71440601348877,8.01568102836609,460.163214921951,"0",2,1,2
14,20,1,0.609900951385498,9.99923896789551,462.146774053574,"0",0,3,2
14,20,1,0.996999979019165,12.015960931778,464.163495063782,"0",2,0,2
14,20,2,0.714133977890015,14.0152440071106,466.162777900696,"0",2,7,2
14,20,1,0,14.0155029296875,466.163035869598,"Reward",0,0,2
14,4,2,1.00011110305786,1.9995858669281,474.213413000107,"0",0,2,2
14,4,0,0.413281917572021,2.41609597206116,474.629921913147,"0",2,2,2
14,4,0,0,2.41739988327026,474.631224870682,"Quit",0,0,2
14,4,0,0.188437938690186,0.207947015762329,478.872195959091,"0",0,0,2
14,4,0,0,0.208698034286499,478.872946977615,"Quit",0,0,2
14,8,1,0.837290048599243,1.99973297119141,484.896756887436,"0",1,4,2
14,8,1,0.530620098114014,3.99951386451721,486.896537065506,"0",0,4,2
14,8,1,0.474771976470947,5.99968385696411,488.896707057953,"0",1,7,2
14,8,1,0.620765924453735,7.9996919631958,490.896714925766,"0",1,1,2
14,8,1,0.550085067749023,9.99971795082092,492.896740913391,"0",1,4,2
14,8,1,0.481372117996216,11.9997189044952,494.896743059158,"0",1,7,2
14,8,1,0.592446088790894,13.9992859363556,496.896308898926,"0",0,1,2
14,8,1,0,13.9995498657227,496.896571874619,"Reward",0,0,2
14,8,1,0.765577077865601,2.01583790779114,504.96334695816,"0",2,4,2
14,8,1,0.681289911270142,4.01580810546875,506.963316917419,"0",2,1,2
14,8,1,0.648245096206665,5.99926996231079,508.946778059006,"0",1,3,2
14,8,1,0.946110010147095,8.01595091819763,510.963459014893,"0",2,4,2
14,8,1,0.90381908416748,9.99925899505615,512.946768045425,"0",1,0,2
14,8,1,0.457267999649048,11.9993140697479,514.946821928024,"0",1,3,2
14,8,1,0.71091103553772,13.9991791248322,516.946686983109,"0",0,3,2
14,8,1,0,13.9993879795074,516.946894884109,"Reward",0,0,2
14,20,2,0.88209080696106,2.01622819900513,525.013520956039,"0",2,0,2
14,20,2,0.913902997970581,4.01618599891663,527.013479948044,"0",2,4,2
14,20,2,0,4.01643919944763,527.013731002808,"Forced travel",0,0,2
14,4,0,1.08426094055176,1.08430099487305,532.131687879562,"0",2,3,2
14,4,0,0,1.08450412750244,532.131891012192,"Quit",0,0,2
14,4,0,0.610908031463623,0.616280794143677,536.780096054077,"0",1,6,2
14,4,0,0,0.61702299118042,536.780838012695,"Quit",0,0,2
14,20,1,0.740378141403198,1.99900794029236,542.812998056412,"0",0,4,2
14,20,1,0.503535032272339,3.99942803382874,544.81341791153,"0",1,2,2
14,20,1,0.54683518409729,5.99941682815552,546.813405990601,"0",1,2,2
14,20,1,0.50140905380249,7.99920392036438,548.813192844391,"0",0,6,2
14,20,1,0.537661075592041,9.99950385093689,550.813493013382,"0",0,3,2
14,20,1,0.700156927108765,11.999382019043,552.813371896744,"0",1,6,2
14,20,1,0.502424001693726,13.9994659423828,554.813454866409,"0",0,2,2
14,20,1,0,13.999675989151,554.813663959503,"Reward",0,0,2
14,8,1,0.698247909545898,2.01624202728271,562.880336046219,"0",2,4,2
14,8,1,0.617147922515869,3.99909496307373,564.863188028336,"0",0,2,2
14,8,1,0.83179497718811,6.01599097251892,566.880084991455,"0",2,1,2
14,8,1,0.646676063537598,7.99937009811401,568.863462924957,"0",1,2,2
14,8,1,0.650250911712646,9.9990930557251,570.863185882568,"0",1,4,2
14,8,1,0.483066082000732,11.9991109371185,572.86320400238,"0",1,3,2
14,8,1,0.514321088790894,13.9993879795074,574.863481044769,"0",0,1,2
14,8,1,0,13.9995980262756,574.863689899445,"Reward",0,0,2
14,8,1,0.531648874282837,1.99917101860046,582.913414001465,"0",1,7,2
14,8,1,0.480679035186768,3.99896597862244,584.913208007812,"0",0,4,2
14,8,2,0.765200138092041,6.01583409309387,586.930077075958,"0",2,5,2
14,8,1,0.470734834671021,7.99859309196472,588.912834882736,"0",1,1,2
14,8,1,0.517004013061523,9.9984610080719,590.912703037262,"0",0,3,2
14,8,1,0.541808128356934,11.9991600513458,592.91340303421,"0",0,6,2
14,8,2,0.713881969451904,14.0158090591431,594.930052042007,"0",2,3,2
14,8,2,0,14.0160460472107,594.930286884308,"Forced travel",0,0,2
14,8,2,0.997143983840942,2.01572895050049,600.980041980743,"0",2,4,2
14,8,0,0.647293090820312,2.67118406295776,601.635494947433,"0",1,7,2
14,8,0,0,2.6713240146637,601.635634899139,"Quit",0,0,2
14,8,2,1.00007510185242,1.9991569519043,607.663398981094,"0",1,1,2
14,8,0,3.16796112060547,3.16800212860107,608.832242012024,"0",0,3,2
14,8,0,0,3.16932392120361,608.833564043045,"Quit",0,0,2
14,20,1,0.585608005523682,1.99987483024597,614.863528013229,"0",0,3,2
14,20,2,0.996603965759277,4.01633501052856,616.879987955093,"0",2,3,2
14,20,1,0.984684944152832,5.99976181983948,618.863415002823,"0",1,4,2
14,20,1,0.681343078613281,8.01650595664978,620.880158901215,"0",2,5,2
14,20,1,0.542097091674805,9.99959087371826,622.863244056702,"0",1,2,2
14,20,1,0.505527019500732,11.9997630119324,624.863416910172,"0",1,1,2
14,20,1,0.549583911895752,13.9987738132477,626.862426042557,"0",1,3,2
14,20,1,0,14.0009498596191,626.864603042603,"Reward",0,0,2
14,4,0,0.933121919631958,0.934947967529297,633.848872900009,"0",2,0,2
14,4,0,0,0.935148954391479,633.849073886871,"Quit",0,0,2
14,4,0,1.0324079990387,1.03245902061462,638.913379907608,"0",1,7,2
14,4,0,0,1.03270411491394,638.913625001907,"Quit",0,0,2
14,20,1,0.715551137924194,2.0160961151123,644.963449001312,"0",2,6,2
14,20,1,0.65822696685791,3.99930500984192,646.946658849716,"0",0,7,2
14,20,1,0.805363893508911,5.99915599822998,648.946510076523,"0",1,1,2
14,20,1,0.574090957641602,7.99906611442566,650.9464199543,"0",1,2,2
14,20,1,0.730901002883911,10.016056060791,652.963409900665,"0",2,2,2
14,20,1,0.814210176467896,12.0158190727234,654.963172912598,"0",2,2,2
14,20,2,0.798443078994751,14.0158500671387,656.963203907013,"0",2,7,2
14,20,1,0,14.016891002655,656.964243888855,"Reward",0,0,2
14,20,1,0.534255027770996,1.99946308135986,665.013490915298,"0",0,0,2
14,20,1,0.664504051208496,4.01596212387085,667.029991865158,"0",2,0,2
14,20,1,0.566908836364746,5.99904108047485,669.013069868088,"0",0,0,2
14,20,1,0.730042934417725,7.99938416481018,671.013413906097,"0",1,0,2
14,20,1,0.502616882324219,9.99937105178833,673.013401031494,"0",0,2,2
14,20,1,0.452932119369507,11.9994390010834,675.013468027115,"0",1,5,2
14,20,1,0.495780944824219,13.9992291927338,677.013257980347,"0",1,2,2
14,20,1,0,14.0005459785461,677.014574050903,"Reward",0,0,2
14,4,2,1.00007104873657,1.99935698509216,685.063318967819,"0",1,2,2
14,4,2,1.00008797645569,3.99926590919495,687.063227891922,"0",0,7,2
14,4,2,0,4.00031185150146,687.064274072647,"Forced travel",0,0,2
14,20,1,0.664823055267334,1.99916315078735,693.096786975861,"0",0,2,2
14,20,1,0.647212982177734,3.99906396865845,695.09668803215,"0",1,4,2
14,20,1,0.521003007888794,5.99903607368469,697.096660852432,"0",1,7,2
14,20,1,0.55314302444458,7.99911713600159,699.096741914749,"0",1,1,2
14,20,1,0.47705602645874,9.99910593032837,701.096730947495,"0",1,2,2
14,20,1,0.863895177841187,12.0154891014099,703.113112926483,"0",2,5,2
14,20,1,0.629315853118896,13.9988701343536,705.096493959427,"0",1,5,2
14,20,1,0,13.9990811347961,705.096704006195,"Reward",0,0,2
14,8,0,0.0396158695220947,0.0594401359558105,711.206835031509,"0",0,3,2
14,8,0,0,0.0595760345458984,711.206970930099,"Quit",0,0,2
14,8,0,1.6323618888855,1.63242387771606,716.88006401062,"0",0,4,2
14,8,0,0,1.63351988792419,716.881159067154,"Quit",0,0,2
14,4,0,0.472110033035278,0.476972103118896,721.391191959381,"0",1,1,2
14,4,0,0,0.477142095565796,721.391361951828,"Quit",0,0,2
14,20,1,0.56641697883606,2.00067710876465,727.429822921753,"0",0,2,2
14,20,1,0.503262996673584,4.00088906288147,729.430036067963,"0",0,7,2
14,20,1,0.615232944488525,6.000981092453,731.430126905441,"0",1,6,2
14,20,1,0.401920080184937,8.00098514556885,733.430130958557,"0",1,3,2
14,20,1,0.580708980560303,10.0009169578552,735.430064916611,"0",0,2,2
14,20,1,0.40882396697998,12.0009269714355,737.430073976517,"0",0,1,2
14,20,1,0.49993109703064,14.0006930828094,739.429838895798,"0",0,3,2
14,20,1,0,14.0009019374847,739.430047035217,"Reward",0,0,2
14,20,1,0.611639022827148,1.99895000457764,747.479843854904,"0",0,0,2
14,20,2,0.996117115020752,4.01583504676819,749.496729850769,"0",2,3,2
14,20,1,0.697033882141113,6.01558589935303,751.496479988098,"0",2,7,2
14,20,1,0.761870861053467,7.99848413467407,753.479377031326,"0",1,2,2
14,20,1,0.498234033584595,9.9991729259491,755.480067968369,"0",0,4,2
14,20,1,0.55006217956543,11.9989080429077,757.479801893234,"0",1,2,2
14,20,1,0.576065063476562,13.998517036438,759.479410886765,"0",0,5,2
14,20,1,0,13.9998300075531,759.480722904205,"Reward",0,0,2
14,4,0,0.873902082443237,0.876816987991333,766.407708883286,"0",1,0,2
14,4,0,0,0.876956939697266,766.40784907341,"Quit",0,0,2
14,4,0,1.04886817932129,1.04891610145569,771.496465921402,"0",0,2,2
14,4,0,0,1.04915499687195,771.496705055237,"Quit",0,0,2
14,8,0,0.478704929351807,0.501713991165161,776.031519889832,"0",0,0,2
14,8,0,0,0.501853942871094,776.031658887863,"Quit",0,0,2
14,8,0,0.757786989212036,0.761297941207886,780.825171947479,"0",1,2,2
14,8,0,0,0.761433839797974,780.825307846069,"Quit",0,0,2
14,4,0,0.665681123733521,0.667448043823242,785.531693935394,"0",2,0,2
14,4,0,0,0.667640924453735,785.531887054443,"Quit",0,0,2
14,4,0,0.382044076919556,0.383759021759033,789.948335886002,"0",2,2,2
14,4,0,0,0.383960962295532,789.948538064957,"Quit",0,0,2
14,20,1,0.706703901290894,1.99932909011841,795.980078935623,"0",0,2,2
14,20,1,0.708742141723633,3.9990599155426,797.979809045792,"0",1,3,2
14,20,1,0.665176868438721,6.01574301719666,799.996491909027,"0",2,0,2
14,20,1,0.669250965118408,7.99876809120178,801.979516983032,"0",0,5,2
14,20,1,0.506529808044434,9.99839305877686,803.979141950607,"0",0,3,2
14,20,1,0.767965078353882,11.9990820884705,805.979830980301,"0",1,6,2
14,20,1,0.497974872589111,13.9989099502563,807.979658842087,"0",0,5,2
14,20,1,0,13.999125957489,807.979873895645,"Reward",0,0,2
14,8,0,1.68247389793396,1.68253397941589,815.713394880295,"0",1,7,2
14,8,0,0,1.68278193473816,815.713643074036,"Quit",0,0,2
14,8,1,0.8733229637146,1.99887299537659,821.746475934982,"0",1,4,2
14,8,1,0.598932027816772,4.01579284667969,823.763396978378,"0",2,7,2
14,8,1,0.616307973861694,5.99913287162781,825.746737003326,"0",0,2,2
14,8,1,0.927465915679932,7.99905490875244,827.746657848358,"0",1,1,2
14,8,1,0.425386905670166,9.99909281730652,829.746696949005,"0",0,2,2
14,8,1,0.7622389793396,12.0155699253082,831.763172864914,"0",2,1,2
14,8,1,0.69442892074585,13.9990878105164,833.746691942215,"0",1,0,2
14,8,1,0,13.9993510246277,833.746953010559,"Reward",0,0,2
14,20,1,0.748805999755859,2.01614713668823,841.813356876373,"0",2,7,2
14,20,1,0.897679805755615,4.01620411872864,843.813413858414,"0",2,2,2
14,20,2,0.881743192672729,6.01595616340637,845.813163995743,"0",2,4,2
14,20,1,0.64126992225647,7.99950313568115,847.796711921692,"0",0,1,2
14,20,1,0.5466468334198,9.99930119514465,849.796509981155,"0",1,4,2
14,20,1,0.477978944778442,11.9992830753326,851.796491861343,"0",1,1,2
14,20,1,0.748054981231689,14.016154050827,853.813364028931,"0",2,2,2
14,20,1,0,14.016419172287,853.813627004623,"Reward",0,0,2
2,4,0,0.346360921859741,0.349809169769287,866.330523014069,"0",1,2,3
2,4,0,0,0.350706100463867,866.331419944763,"Quit",0,0,3
2,20,1,0.563130140304565,1.99950194358826,884.363479852676,"0",0,2,3
2,20,1,0,1.99976897239685,884.363744974136,"Reward",0,0,3
2,8,1,0.56010103225708,1.99911308288574,904.413321971893,"0",1,5,3
2,8,1,0,2.00137090682983,904.415578842163,"Reward",0,0,3
2,4,0,0.107131958007812,0.110002040863037,922.574183940887,"0",1,3,3
2,4,0,0,0.111248970031738,922.575430870056,"Quit",0,0,3
2,8,2,1.00006699562073,1.9993851184845,940.613354921341,"0",0,5,3
2,8,2,0,2.00047898292542,940.614446878433,"Forced travel",0,0,3
2,20,2,0.997040987014771,2.01562690734863,958.663153886795,"0",2,6,3
2,20,2,0,2.01671099662781,958.6642370224,"Forced travel",0,0,3
2,4,1,0.682599067687988,1.99953198432922,976.69672203064,"0",0,6,3
2,4,1,0,1.9997410774231,976.696929931641,"Reward",0,0,3
2,20,1,0.772727966308594,1.99910283088684,996.746634960175,"0",1,0,3
2,20,1,0,2.00133800506592,996.748867988586,"Reward",0,0,3
2,20,1,0.6318039894104,2.01586890220642,1016.81342601776,"0",2,7,3
2,20,1,0,2.01694798469543,1016.81450390816,"Reward",0,0,3
2,4,0,0.732309818267822,0.734027862548828,1035.59820604324,"0",2,4,3
2,4,0,0,0.734232902526855,1035.5984108448,"Quit",0,0,3
2,8,1,0.598628997802734,2.01563405990601,1053.64639592171,"0",2,7,3
2,8,1,0,2.01785898208618,1053.64861893654,"Reward",0,0,3
2,8,1,0.857742071151733,1.99918508529663,1073.69671487808,"0",0,0,3
2,8,1,0,1.99939608573914,1073.69692492485,"Reward",0,0,3
2,4,0,0.0826611518859863,0.0844950675964355,1091.83194994926,"0",2,1,3
2,4,0,0,0.0855839252471924,1091.83303785324,"Quit",0,0,3
2,20,1,0.492460012435913,1.99909710884094,1109.86305999756,"0",1,7,3
2,20,1,0,2.00017905235291,1109.86414194107,"Reward",0,0,3
2,20,1,0.935222148895264,1.99963998794556,1129.9133579731,"0",0,1,3
2,20,1,0,1.99985694885254,1129.91357398033,"Reward",0,0,3
2,8,1,0.686556100845337,1.99919199943542,1150.01308894157,"0",1,1,3
2,8,1,0,1.99940586090088,1150.01330184937,"Reward",0,0,3
2,4,0,0.0677311420440674,0.0708301067352295,1168.13478899002,"0",1,0,3
2,4,0,0,0.0715830326080322,1168.13554191589,"Quit",0,0,3
2,8,1,0.466005086898804,1.99884581565857,1186.162307024,"0",1,3,3
2,8,1,0,1.99904584884644,1186.16250491142,"Reward",0,0,3
2,8,1,0.535022020339966,1.99924993515015,1206.2126288414,"0",1,1,3
2,8,1,0,1.9994649887085,1206.21284294128,"Reward",0,0,3
2,8,1,0.68169116973877,2.01532697677612,1226.2794239521,"0",2,4,3
2,8,1,0,2.01554918289185,1226.27964401245,"Reward",0,0,3
2,4,1,0.515923023223877,2.01577377319336,1246.34662294388,"0",2,5,3
2,4,1,0,2.01604795455933,1246.34689497948,"Reward",0,0,3
2,4,1,0.665873050689697,2.0171811580658,1266.41368794441,"0",2,0,3
2,4,1,0,2.01853513717651,1266.41504192352,"Reward",0,0,3
10,4,2,0.997412919998169,2.01597309112549,1346.04638385773,"0",2,1,4
10,4,1,0.456125020980835,3.99931502342224,1348.02972602844,"0",1,2,4
10,4,1,0.541191101074219,5.99948811531067,1350.02990007401,"0",1,3,4
10,4,1,0.374236822128296,7.99928402900696,1352.02969503403,"0",1,5,4
10,4,1,0.469545125961304,9.99944019317627,1354.02985191345,"0",1,6,4
10,4,1,0,9.99970412254333,1354.03011393547,"Reward",0,0,4
10,4,0,0.0860319137573242,0.105753183364868,1364.18619298935,"0",0,3,4
10,4,0,0,0.105890035629272,1364.18632984161,"Quit",0,0,4
10,20,1,0.616508007049561,1.99934196472168,1374.21321105957,"0",1,2,4
10,20,1,0.541826963424683,3.99912095069885,1376.21298885345,"0",1,2,4
10,20,1,0.476377964019775,5.9993679523468,1378.2132370472,"0",1,6,4
10,20,1,0.664106130599976,8.01580786705017,1380.22967600822,"0",2,7,4
10,20,1,0.497024059295654,9.99916291236877,1382.21303105354,"0",0,1,4
10,20,1,0,10.0004839897156,1382.2143509388,"Reward",0,0,4
10,20,1,0.491964101791382,1.99897813796997,1394.26305794716,"0",0,2,4
10,20,1,0.433137893676758,3.99897599220276,1396.26305603981,"0",1,3,4
10,20,1,0.367362976074219,5.99922800064087,1398.26330804825,"0",0,0,4
10,20,1,0.70287299156189,7.9992311000824,1400.26331090927,"0",0,5,4
10,20,1,0.631531000137329,10.0157790184021,1402.27986001968,"0",2,2,4
10,20,1,0,10.0160429477692,1402.2801220417,"Reward",0,0,4
10,8,1,0.632351875305176,2.01594185829163,1414.34641098976,"0",2,7,4
10,8,1,0.534548997879028,3.99877500534058,1416.32924389839,"0",1,6,4
10,8,1,0.774749994277954,5.9986469745636,1418.32911586761,"0",1,5,4
10,8,1,0.648115158081055,8.01609396934509,1420.3465628624,"0",2,6,4
10,8,1,0.579993009567261,10.0161910057068,1422.34665989876,"0",2,1,4
10,8,1,0,10.0164198875427,1422.34688806534,"Reward",0,0,4
10,8,0,0.0436320304870605,0.0672080516815186,1432.46437096596,"0",0,1,4
10,8,0,0,0.0673549175262451,1432.46451687813,"Quit",0,0,4
10,4,0,0.0738849639892578,0.0933389663696289,1440.59077000618,"0",0,2,4
10,4,0,0,0.095228910446167,1440.59266090393,"Quit",0,0,4
10,8,0,0.390381097793579,0.396106004714966,1449.0266058445,"0",1,6,4
10,8,0,0,0.396242141723633,1449.02674198151,"Quit",0,0,4
10,4,0,0.592333078384399,0.595597982406616,1457.65962791443,"0",1,5,4
10,4,0,0,0.596847057342529,1457.66087603569,"Quit",0,0,4
10,8,1,0.880903959274292,2.01529312133789,1467.71255087852,"0",2,7,4
10,8,1,0.636297941207886,3.99912214279175,1469.69637989998,"0",0,5,4
10,8,1,0.681274890899658,6.01535820960999,1471.7126159668,"0",2,5,4
10,8,1,0.501195192337036,7.99932909011841,1473.6965880394,"0",0,6,4
10,8,1,0.501694917678833,9.99938011169434,1475.69663786888,"0",0,0,4
10,8,1,0,9.99959015846252,1475.69684696198,"Reward",0,0,4
10,20,1,0.694124937057495,1.99925208091736,1487.74655890465,"0",1,6,4
10,20,1,0.747435808181763,4.01575207710266,1489.76305794716,"0",2,1,4
10,20,1,0.556830167770386,5.99903392791748,1491.74634003639,"0",0,7,4
10,20,1,0.61454701423645,8.01599407196045,1493.76329994202,"0",2,1,4
10,20,1,0.455531120300293,9.99927997589111,1495.74658703804,"0",0,7,4
10,20,1,0,10.0004189014435,1495.74772405624,"Reward",0,0,4
10,20,1,0.484843015670776,1.99912595748901,1507.79655694962,"0",0,6,4
10,20,1,0.530161142349243,4.01573204994202,1509.81316184998,"0",2,5,4
10,20,2,0.514778852462769,6.01573801040649,1511.81316900253,"0",2,7,4
10,20,1,0.487720012664795,7.9991500377655,1513.79658007622,"0",0,4,4
10,20,1,0.569939136505127,9.99892115592957,1515.79635095596,"0",0,5,4
10,20,1,0,9.99913001060486,1515.79655885696,"Reward",0,0,4
10,8,0,0.0122299194335938,0.0322370529174805,1525.87967896461,"0",0,6,4
10,8,0,0,0.032433032989502,1525.87987303734,"Quit",0,0,4
10,20,1,0.568641901016235,1.99916791915894,1535.91323900223,"0",0,7,4
10,20,1,0.695518970489502,4.01561307907104,1537.92968392372,"0",2,7,4
10,20,1,0.490725994110107,5.99910306930542,1539.91317391396,"0",0,1,4
10,20,1,0.483077049255371,7.99888896942139,1541.91296005249,"0",1,3,4
10,20,1,0.515037059783936,10.0158939361572,1543.92996501923,"0",2,2,4
10,20,1,0,10.0161020755768,1543.93017196655,"Reward",0,0,4
10,4,0,0.107249975204468,0.11051607131958,1554.09133291245,"0",1,5,4
10,4,0,0,0.110653162002563,1554.09147000313,"Quit",0,0,4
10,20,1,0.832311153411865,2.01558494567871,1564.1458978653,"0",2,1,4
10,20,1,0.779522895812988,3.99899005889893,1566.12930297852,"0",1,0,4
10,20,1,0.847899198532104,6.01623392105103,1568.14654707909,"0",2,7,4
10,20,1,0.576074838638306,7.99957990646362,1570.12989401817,"0",1,0,4
10,20,1,0.547553062438965,9.99958491325378,1572.12989807129,"0",1,7,4
10,20,1,0,9.9998459815979,1572.13015794754,"Reward",0,0,4
10,4,0,0.279724836349487,0.283322095870972,1582.46401500702,"0",1,2,4
10,4,0,0,0.283460140228271,1582.46415400505,"Quit",0,0,4
10,8,0,0.0186560153961182,0.038599967956543,1590.53575491905,"0",0,7,4
10,8,0,0,0.039564847946167,1590.53672003746,"Quit",0,0,4
10,20,1,0.532175064086914,2.01582384109497,1600.57966303825,"0",2,6,4
10,20,1,0.547165870666504,4.01549386978149,1602.57933306694,"0",2,0,4
10,20,1,0.731703042984009,6.0155029296875,1604.57934188843,"0",2,2,4
10,20,1,0.521021127700806,7.99963879585266,1606.56347894669,"0",0,3,4
10,20,1,0.542643070220947,9.99939298629761,1608.56323194504,"0",0,3,4
10,20,1,0,9.99965786933899,1608.5634958744,"Reward",0,0,4
10,20,1,0.490708112716675,1.99880003929138,1620.61285090446,"0",0,6,4
10,20,1,0.476044893264771,3.99918007850647,1622.61323189735,"0",0,1,4
10,20,1,0.53174901008606,5.99893403053284,1624.61298489571,"0",1,3,4
10,20,1,0.598506927490234,8.01592302322388,1626.62997293472,"0",2,1,4
10,20,1,0.457941055297852,9.99919390678406,1628.61324596405,"0",0,4,4
10,20,1,0,9.99945497512817,1628.61350488663,"Reward",0,0,4
10,8,0,0.0661571025848389,0.0680170059204102,1638.73130607605,"0",2,2,4
10,8,0,0,0.068291187286377,1638.731580019,"Quit",0,0,4
10,8,1,0.431339979171753,2.01533198356628,1648.77917790413,"0",2,4,4
10,8,2,0.59745717048645,4.01552295684814,1650.7793700695,"0",2,7,4
10,8,2,0.408515930175781,5.99857306480408,1652.76241993904,"0",1,1,4
10,8,2,0,5.99873685836792,1652.76258087158,"Forced travel",0,0,4
10,4,0,0.273313999176025,0.293662071228027,1661.09042787552,"0",0,7,4
10,4,0,0,0.293773174285889,1661.09053897858,"Quit",0,0,4
10,4,0,0.0935790538787842,0.0992560386657715,1669.21349692345,"0",1,7,4
10,4,0,0,0.100503921508789,1669.21474385262,"Quit",0,0,4
10,4,2,0.682298898696899,2.01560091972351,1679.26295185089,"0",2,4,4
10,4,1,0.511966943740845,3.99919104576111,1681.2465429306,"0",1,2,4
10,4,1,0.517572164535522,5.99915599822998,1683.24650907516,"0",0,1,4
10,4,1,0.612917900085449,7.9990029335022,1685.24635505676,"0",0,7,4
10,4,1,0.480690956115723,10.0158679485321,1687.26322102547,"0",2,2,4
10,4,1,0,10.0161309242249,1687.26348185539,"Reward",0,0,4
10,8,0,0.0991060733795166,0.101980924606323,1697.41497588158,"0",1,3,4
10,8,0,0,0.10211706161499,1697.41511201859,"Quit",0,0,4
10,20,2,0.898232936859131,2.0158851146698,1707.46329593658,"0",2,5,4
10,20,1,0.663774013519287,4.01574420928955,1709.46315598488,"0",2,1,4
10,20,2,0.99666690826416,6.01551818847656,1711.46292901039,"0",2,6,4
10,20,2,0,6.01571798324585,1711.46312904358,"Forced travel",0,0,4
10,8,2,0.565176963806152,2.01556301116943,1721.51298189163,"0",2,7,4
10,8,2,0.996824026107788,4.01583909988403,1723.51325702667,"0",2,4,4
10,8,2,0,4.01604104042053,1723.51345896721,"Forced travel",0,0,4
10,4,0,0.0734500885009766,0.0778810977935791,1731.62506198883,"0",1,1,4
10,4,0,0,0.0780251026153564,1731.62520503998,"Quit",0,0,4
10,20,1,0.615202903747559,2.01555299758911,1741.67960691452,"0",2,1,4
10,20,1,0.575505971908569,3.99891591072083,1743.66297006607,"0",0,0,4
10,20,1,0.363568067550659,5.99891304969788,1745.66296696663,"0",0,0,4
10,20,1,0.531744003295898,8.01557087898254,1747.67962503433,"0",2,0,4
10,20,1,0.77448296546936,9.99922800064087,1749.66328191757,"0",0,5,4
10,20,1,0,9.99944090843201,1749.66349387169,"Reward",0,0,4
14,20,1,0.64764404296875,1.99998593330383,1767.56315207481,"0",1,4,5
14,20,1,0.53728985786438,4.0000319480896,1769.56319785118,"0",1,1,5
14,20,1,0.597471952438354,6.01674795150757,1771.57991290092,"0",2,4,5
14,20,2,0.680875062942505,8.01673698425293,1773.57990193367,"0",2,4,5
14,20,2,0.897994995117188,10.0166800022125,1775.5798459053,"0",2,5,5
14,20,2,0,10.0169348716736,1775.58009791374,"Forced travel",0,0,5
14,4,0,0.0329160690307617,0.0347650051116943,1779.6483540535,"0",2,7,5
14,4,0,0,0.0349800586700439,1779.64856886864,"Quit",0,0,5
14,8,0,0.211277961730957,0.216535091400146,1783.89685893059,"0",1,7,5
14,8,0,0,0.21779203414917,1783.89811587334,"Quit",0,0,5
14,4,0,0.014564037322998,0.0342268943786621,1787.96456885338,"0",0,6,5
14,4,0,0,0.0344228744506836,1787.96476507187,"Quit",0,0,5
14,8,0,0.188910961151123,0.208702802658081,1792.20575404167,"0",0,1,5
14,8,0,0,0.209954023361206,1792.20700502396,"Quit",0,0,5
14,20,1,0.831934928894043,2.01608204841614,1798.26328587532,"0",2,6,5
14,20,1,0.483222007751465,3.99867105484009,1800.24587392807,"0",0,6,5
14,20,1,0.533956050872803,5.99932813644409,1802.24653291702,"0",0,4,5
14,20,1,0.50083589553833,7.99910807609558,1804.246311903,"0",0,6,5
14,20,1,0.554764986038208,9.99904298782349,1806.24624705315,"0",1,1,5
14,20,1,0.488173007965088,11.9990770816803,1808.24628090858,"0",1,0,5
14,20,1,0.488413095474243,13.9988560676575,1810.24605989456,"0",0,1,5
14,20,1,0,13.9990649223328,1810.24626803398,"Reward",0,0,5
14,4,0,0.0489189624786377,0.0506420135498047,1816.34808087349,"0",2,4,5
14,4,0,0,0.052711009979248,1816.35014986992,"Quit",0,0,5
14,8,0,0.0435810089111328,0.0635559558868408,1820.44411492348,"0",0,3,5
14,8,0,0,0.0637068748474121,1820.44426584244,"Quit",0,0,5
14,8,0,0.0209140777587891,0.0263590812683105,1824.50708293915,"0",1,6,5
14,8,0,0,0.0265281200408936,1824.50725197792,"Quit",0,0,5
14,20,1,0.698472023010254,2.01575112342834,1830.56303286552,"0",2,0,5
14,20,1,0.505880117416382,3.99918007850647,1832.54646205902,"0",0,1,5
14,20,1,0.567394018173218,5.99930810928345,1834.54658889771,"0",0,2,5
14,20,1,0.5190749168396,7.99893999099731,1836.54622101784,"0",1,0,5
14,20,1,0.435414791107178,9.99915099143982,1838.54643297195,"0",1,5,5
14,20,1,0.438982009887695,11.9992029666901,1840.5464849472,"0",1,3,5
14,20,1,0.414311170578003,13.9992079734802,1842.54648900032,"0",1,5,5
14,20,1,0,13.9994850158691,1842.54676485062,"Reward",0,0,5
14,20,1,0.865096092224121,2.015704870224,1850.61296105385,"0",2,6,5
14,20,1,0.664695024490356,4.01577591896057,1852.61303186417,"0",2,3,5
14,20,1,0.780416011810303,6.01601886749268,1854.61327505112,"0",2,3,5
14,20,1,0.664788007736206,8.01576399803162,1856.61301994324,"0",2,3,5
14,20,2,0.995341062545776,10.0159389972687,1858.61319494247,"0",2,3,5
14,20,1,0.0111780166625977,11.9990270137787,1860.59628200531,"0",1,0,5
14,20,1,0.582751035690308,13.9989759922028,1862.59623193741,"0",1,6,5
14,20,1,0,13.9992008209229,1862.59645605087,"Reward",0,0,5
14,4,0,0.0404579639434814,0.0600619316101074,1868.70730495453,"0",0,1,5
14,4,0,0,0.0601978302001953,1868.70744085312,"Quit",0,0,5
14,20,1,0.615143775939941,2.01589202880859,1874.76322102547,"0",2,1,5
14,20,1,0.558127164840698,3.99913120269775,1876.74646091461,"0",0,3,5
14,20,1,0.510542869567871,5.99898314476013,1878.746311903,"0",1,1,5
14,20,1,0.581850051879883,8.01562213897705,1880.76295089722,"0",2,3,5
14,20,1,0.639050960540771,9.99893999099731,1882.74626898766,"0",0,6,5
14,20,1,0.423273086547852,11.9988570213318,1884.74618601799,"0",0,4,5
14,20,1,0.515990018844604,13.9991550445557,1886.74648404121,"0",0,2,5
14,20,1,0,14.0002210140228,1886.74754905701,"Reward",0,0,5
14,4,0,0.133270978927612,0.138631105422974,1892.93589997292,"0",1,6,5
14,4,0,0,0.138767004013062,1892.93603587151,"Quit",0,0,5
14,20,2,1.00008797645569,1.99921798706055,1898.96292686462,"0",1,4,5
14,20,2,0.0106449127197266,3.99900007247925,1900.96270895004,"0",1,0,5
14,20,2,0,3.99921894073486,1900.96292591095,"Forced travel",0,0,5
14,8,0,0.331723928451538,0.333446025848389,1905.33076190948,"0",2,5,5
14,8,0,0,0.333645105361938,1905.330960989,"Quit",0,0,5
14,8,0,0.280336856842041,0.282159805297852,1909.64637303352,"0",2,6,5
14,8,0,0,0.282358884811401,1909.64657187462,"Quit",0,0,5
14,4,0,0.315400838851929,0.319822788238525,1914.00014805794,"0",1,4,5
14,4,0,0,0.321064949035645,1914.00138998032,"Quit",0,0,5
14,8,0,0.393678903579712,0.396569013595581,1918.42694687843,"0",1,0,5
14,8,0,0,0.397345066070557,1918.42772388458,"Quit",0,0,5
14,4,2,0.997220039367676,2.01602005958557,1924.4798848629,"0",2,4,5
14,4,2,0.996075868606567,4.01576709747314,1926.47963190079,"0",2,4,5
14,4,2,0,4.01596713066101,1926.4798309803,"Forced travel",0,0,5
14,4,0,0.310271024703979,0.313980102539062,1930.82613897324,"0",1,2,5
14,4,0,0,0.314116954803467,1930.82627606392,"Quit",0,0,5
14,20,1,0.566627025604248,1.99908804893494,1936.86291503906,"0",1,2,5
14,20,1,0.681532859802246,4.01580405235291,1938.87963104248,"0",2,0,5
14,20,1,0.596304893493652,6.01607418060303,1940.87990188599,"0",2,3,5
14,20,1,0.54099702835083,7.99914407730103,1942.86297106743,"0",1,4,5
14,20,1,0.446202993392944,9.99936604499817,1944.86319303513,"0",1,0,5
14,20,1,0.629816055297852,11.9993062019348,1946.86313295364,"0",0,5,5
14,20,1,0.432492017745972,13.9991130828857,1948.86294007301,"0",0,0,5
14,20,1,0,13.9993221759796,1948.86314797401,"Reward",0,0,5
14,20,1,0.765769958496094,2.01593399047852,1956.92953395844,"0",2,3,5
14,20,1,0.479636192321777,3.99966382980347,1958.91326403618,"0",1,2,5
14,20,1,0.651872158050537,5.99960899353027,1960.91320896149,"0",0,4,5
14,20,1,0.517651081085205,7.9996337890625,1962.91323399544,"0",0,5,5
14,20,1,0.830965995788574,9.99955797195435,1964.91315984726,"0",2,6,5
14,20,1,0.530075788497925,11.9995729923248,1966.91317391396,"0",1,7,5
14,20,1,0.963048934936523,13.9993679523468,1968.9129679203,"0",0,4,5
14,20,1,0,13.999577999115,1968.9131770134,"Reward",0,0,5
14,8,0,0.336987972259521,0.356457948684692,1975.32043886185,"0",0,2,5
14,8,0,0,0.35661506652832,1975.32059597969,"Quit",0,0,5
14,4,0,0.330726861953735,0.332446098327637,1979.67983198166,"0",2,2,5
14,4,0,0,0.333505868911743,1979.68089103699,"Quit",0,0,5
14,20,1,0.500043153762817,1.9989070892334,1985.7129509449,"0",0,1,5
14,20,1,0.659952163696289,3.99892401695251,1987.71296906471,"0",1,4,5
14,20,1,0.510351896286011,5.99908995628357,1989.71313500404,"0",0,7,5
14,20,1,0.451724052429199,7.9991021156311,1991.71314787865,"0",1,3,5
14,20,1,0.516741037368774,9.99913001060486,1993.71317601204,"0",1,6,5
14,20,1,0.696842193603516,12.0155489444733,1995.72959399223,"0",2,4,5
14,20,1,0.43213677406311,13.9988880157471,1997.71293306351,"0",1,4,5
14,20,1,0,13.9990971088409,1997.71314096451,"Reward",0,0,5
14,8,1,0.64869499206543,2.01564407348633,2005.77961087227,"0",2,5,5
14,8,1,0.492247104644775,3.99917697906494,2007.76314496994,"0",1,1,5
14,8,2,0.795771837234497,6.01582813262939,2009.77979493141,"0",2,7,5
14,8,1,0.664647102355957,8.01580810546875,2011.77977585793,"0",2,2,5
14,8,1,0.537185907363892,9.9992241859436,2013.7631919384,"0",1,6,5
14,8,1,0.497632026672363,11.9989831447601,2015.76294994354,"0",0,4,5
14,8,1,0.429235935211182,13.9989860057831,2017.76295304298,"0",1,4,5
14,8,1,0,13.999195098877,2017.76316094398,"Reward",0,0,5
14,20,1,0.596862077713013,1.9989128112793,2025.81287002563,"0",0,7,5
14,20,2,0.682097196578979,4.01580500602722,2027.82976293564,"0",2,7,5
14,20,1,0.548226118087769,6.01564693450928,2029.82960391045,"0",2,1,5
14,20,1,0.69812798500061,8.01580691337585,2031.82976484299,"0",2,1,5
14,20,1,0.512786149978638,9.99915885925293,2033.81311702728,"0",0,6,5
14,20,1,0.337843894958496,11.9991998672485,2035.81315684319,"0",0,6,5
14,20,1,0.617019176483154,13.999312877655,2037.81326985359,"0",0,2,5
14,20,1,0,14.0003678798676,2037.81432390213,"Reward",0,0,5
14,8,0,0.130048990249634,0.132482051849365,2043.99628186226,"0",2,0,5
14,8,0,0,0.134682178497314,2043.99848198891,"Quit",0,0,5
14,4,0,0.277964115142822,0.28333306312561,2048.31380295753,"0",1,7,5
14,4,0,0,0.283473014831543,2048.31394290924,"Quit",0,0,5
14,8,0,0.24938702583313,0.269027948379517,2052.61642885208,"0",0,5,5
14,8,0,0,0.269164085388184,2052.61656403542,"Quit",0,0,5
14,4,0,0.268967866897583,0.27228307723999,2056.91960191727,"0",1,5,5
14,4,0,0,0.272441148757935,2056.91975998878,"Quit",0,0,5
14,20,2,1.64150094985962,2.00902390480042,2062.95606088638,"0",1,4,5
14,20,1,0.506839990615845,4.0090069770813,2064.95604491234,"0",1,5,5
14,20,2,0.531399965286255,6.00898599624634,2066.95602297783,"0",2,7,5
14,20,2,0,6.01029181480408,2066.95732903481,"Forced travel",0,0,5
14,20,1,0.473988056182861,1.99902701377869,2072.98945689201,"0",0,2,5
14,20,2,0.530607938766479,4.01579189300537,2075.00622296333,"0",2,7,5
14,20,1,0.551383018493652,5.99906587600708,2076.98949694633,"0",1,6,5
14,20,1,0.531835079193115,8.01559209823608,2079.00602197647,"0",2,1,5
14,20,1,0.473613023757935,9.99914288520813,2080.98957395554,"0",1,2,5
14,20,1,0.482280969619751,11.9989380836487,2082.98936796188,"0",1,4,5
14,20,1,0.454876899719238,13.9990980625153,2084.98952889442,"0",1,0,5
14,20,1,0,13.9993600845337,2084.98978805542,"Reward",0,0,5
14,4,0,0.251874923706055,0.25725793838501,2091.29733705521,"0",1,6,5
14,4,0,0,0.257413148880005,2091.29749202728,"Quit",0,0,5
14,8,1,0.537261009216309,1.99892401695251,2097.32269692421,"0",1,4,5
14,8,1,0.630640983581543,4.01579403877258,2099.33956694603,"0",2,4,5
14,8,1,0.595860004425049,5.99894285202026,2101.3227159977,"0",0,5,5
14,8,1,0.478863954544067,7.99890685081482,2103.32267999649,"0",1,1,5
14,8,2,0.664002895355225,10.0151889324188,2105.33896207809,"0",2,4,5
14,8,1,0.43609094619751,11.9989490509033,2107.32272195816,"0",1,4,5
14,8,1,0.455359935760498,13.9989109039307,2109.32268404961,"0",1,6,5
14,8,1,0,13.9991199970245,2109.32289195061,"Reward",0,0,5
14,20,1,0.568731069564819,1.99941682815552,2117.3729929924,"0",1,6,5
14,20,1,0.580931186676025,4.01581883430481,2119.38939499855,"0",2,7,5
14,20,1,0.712656021118164,6.01607489585876,2121.3896510601,"0",2,0,5
14,20,1,0.426558971405029,7.99935293197632,2123.3729300499,"0",1,2,5
14,20,1,0.470898866653442,9.99933385848999,2125.37291002274,"0",1,0,5
14,20,1,0.533184051513672,11.9991459846497,2127.3727209568,"0",0,6,5
14,20,1,0.414202928543091,13.9991219043732,2129.37269806862,"0",1,0,5
14,20,1,0,14.0001628398895,2129.37373805046,"Reward",0,0,5
14,20,1,0.865507125854492,2.01608896255493,2137.43953299522,"0",2,6,5
14,20,1,0.460358858108521,3.99905610084534,2139.42249894142,"0",1,2,5
14,20,1,0.564088106155396,6.01590800285339,2141.43935203552,"0",2,1,5
14,20,1,0.715346097946167,8.01585912704468,2143.43930196762,"0",2,1,5
14,20,1,0.63148307800293,10.0160660743713,2145.43950986862,"0",2,2,5
14,20,1,0.507585048675537,11.99946808815,2147.4229118824,"0",1,1,5
14,20,1,0.67961597442627,13.999284029007,2149.42272686958,"0",0,7,5
14,20,1,0,13.9994950294495,2149.42293691635,"Reward",0,0,5
14,4,0,0.28882098197937,0.308288097381592,2155.78193497658,"0",0,0,5
14,4,0,0,0.309539079666138,2155.78318595886,"Quit",0,0,5
14,8,0,0.315459966659546,0.317505836486816,2160.14093804359,"0",2,5,5
14,8,0,0,0.318608999252319,2160.14204096794,"Quit",0,0,5
14,4,0,0.236082077026367,0.240577936172485,2164.41422486305,"0",1,4,5
14,4,0,0,0.240712881088257,2164.41435885429,"Quit",0,0,5
14,8,1,0.5158531665802,2.01581287384033,2170.45603084564,"0",2,0,5
14,8,1,0.471197128295898,3.99913096427917,2172.43934893608,"0",0,6,5
14,8,2,0.515100002288818,6.01542592048645,2174.45564293861,"0",2,7,5
14,8,1,0.465475082397461,8.01604890823364,2176.45626807213,"0",2,3,5
14,8,1,0.455833911895752,9.99934792518616,2178.43956589699,"0",0,4,5
14,8,1,0.492603063583374,11.9990429878235,2180.43926095963,"0",1,7,5
14,8,1,0.398460149765015,13.9993097782135,2182.43952894211,"0",1,3,5
14,8,1,0,14.0006759166718,2182.44089198112,"Reward",0,0,5
2,8,1,0.585558891296387,1.99879789352417,2196.22297501564,"0",1,6,6
2,8,1,0,1.99988889694214,2196.22406506538,"Reward",0,0,6
2,4,2,0.765789031982422,2.01590418815613,2216.28939795494,"0",2,6,6
2,4,2,0,2.0170271396637,2216.29051995277,"Forced travel",0,0,6
2,20,1,0.632495880126953,2.01585388183594,2234.33935499191,"0",2,3,6
2,20,1,0,2.01820492744446,2234.34170484543,"Reward",0,0,6
2,8,1,0.715644836425781,2.01580500602722,2254.40611886978,"0",2,4,6
2,8,1,0,2.0169038772583,2254.40721702576,"Reward",0,0,6
2,4,1,0.492407083511353,1.99845004081726,2274.45563387871,"0",0,6,6
2,4,1,0,1.99866008758545,2274.4558429718,"Reward",0,0,6
2,20,1,0.483344078063965,1.99895000457764,2294.50602006912,"0",0,6,6
2,20,1,0,1.9991729259491,2294.50624203682,"Reward",0,0,6
2,8,1,0.53312611579895,1.99949407577515,2314.55623984337,"0",0,0,6
2,8,1,0,2.0006160736084,2314.55735993385,"Reward",0,0,6
2,4,1,0.965405941009521,2.01611089706421,2334.62293195724,"0",2,6,6
2,4,1,0,2.01636910438538,2334.6231880188,"Reward",0,0,6
2,4,1,0.741785049438477,1.99910020828247,2354.67287492752,"0",1,0,6
2,4,1,0,1.99938011169434,2354.67315292358,"Reward",0,0,6
2,20,1,0.556331872940063,1.99916696548462,2374.72288894653,"0",0,0,6
2,20,1,0,2.00028014183044,2374.72399902344,"Reward",0,0,6
2,20,1,0.779497861862183,1.99956512451172,2394.77289390564,"0",0,5,6
2,20,1,0,1.99982619285583,2394.77315402031,"Reward",0,0,6
2,8,1,0.715407133102417,1.99920892715454,2414.82289600372,"0",0,4,6
2,8,1,0,2.00031900405884,2414.82400393486,"Reward",0,0,6
2,8,2,1.00004410743713,1.99931001663208,2434.87289786339,"0",0,6,6
2,8,2,0,2.00153112411499,2434.8751180172,"Forced travel",0,0,6
2,20,1,0.613985061645508,2.0158360004425,2452.92268204689,"0",2,0,6
2,20,1,0,2.01604914665222,2452.92289400101,"Reward",0,0,6
2,4,1,0.7605299949646,1.99933815002441,2472.97281289101,"0",1,3,6
2,4,1,0,2.00049519538879,2472.97396802902,"Reward",0,0,6
2,4,1,0.514234066009521,1.99919891357422,2493.02294588089,"0",0,6,6
2,4,1,0,2.00023984909058,2493.02398586273,"Reward",0,0,6
2,8,1,0.524569988250732,1.99927997589111,2513.07273888588,"0",1,6,6
2,8,1,0,1.99949193000793,2513.07294893265,"Reward",0,0,6
2,20,2,0.613729953765869,2.01549506187439,2533.13931298256,"0",2,2,6
2,20,2,0,2.01774001121521,2533.14155697823,"Forced travel",0,0,6
2,4,1,0.530205011367798,1.99950981140137,2551.17291402817,"0",0,4,6
2,4,1,0,2.00059390068054,2551.17399692535,"Reward",0,0,6
2,20,1,0.504400014877319,1.99914598464966,2571.22285699844,"0",1,7,6
2,20,1,0,1.99940919876099,2571.22311902046,"Reward",0,0,6
2,8,2,0.897917032241821,2.01553416252136,2591.28930091858,"0",2,6,6
2,8,2,0,2.01656603813171,2591.29033303261,"Forced travel",0,0,6
