"Handling","Reward","Choice","Task.RT","Choice.RT","Experiment.Time","Trial.Outcome","Task.Type","Task.Setup","Block"
10,8,1,0.851850986480713,1.99970602989197,9.05343103408813,"0",1,6,1
10,8,1,0.576225996017456,3.99963784217834,11.0533630847931,"0",1,7,1
10,8,1,0.587116956710815,5.99966096878052,13.0533859729767,"0",1,3,1
10,8,1,0.409090042114258,7.99970984458923,15.053435087204,"0",1,1,1
10,8,1,0.846215009689331,9.99966382980347,17.0533890724182,"0",0,4,1
10,8,1,0,9.99987387657166,17.0535969734192,"Reward",0,0,1
10,20,1,0.552385091781616,1.99994206428528,29.1034591197968,"0",1,1,1
10,20,1,0.611088991165161,4.01660919189453,31.1201260089874,"0",2,4,1
10,20,1,0.749576091766357,5.99992799758911,33.1034450531006,"0",0,3,1
10,20,1,0.480113983154297,7.99993300437927,35.1034500598907,"0",1,3,1
10,20,1,0.427922964096069,9.99995517730713,37.1034719944,"0",1,4,1
10,20,1,0,10.0001640319824,37.103679895401,"Reward",0,0,1
10,4,1,0.629729032516479,1.99893283843994,49.1534841060638,"0",1,1,1
10,4,1,0.714070081710815,3.99899196624756,51.1535429954529,"0",0,4,1
10,4,1,0.620599031448364,5.99901390075684,53.1535661220551,"0",0,6,1
10,4,1,0.613924980163574,8.01564693450928,55.1701979637146,"0",2,6,1
10,4,2,0.997006177902222,10.0156610012054,57.1702120304108,"0",2,6,1
10,4,1,0,10.016795873642,57.171345949173,"Reward",0,0,1
10,8,1,0.722794055938721,2.000079870224,69.2202579975128,"0",0,0,1
10,8,1,0.823349952697754,4.00008797645569,71.2202649116516,"0",0,7,1
10,8,1,0.645160913467407,6.00011086463928,73.2202880382538,"0",0,0,1
10,8,1,0.681103944778442,7.99997591972351,75.220153093338,"0",2,1,1
10,8,1,0.6077880859375,10.0000700950623,77.2202470302582,"0",1,5,1
10,8,1,0,10.0013859272003,77.2215609550476,"Reward",0,0,1
10,4,1,0.496929883956909,1.99893283843994,89.2702760696411,"0",1,4,1
10,4,1,0.823962926864624,3.9989538192749,91.2702970504761,"0",0,4,1
10,4,1,0.479059934616089,5.99896883964539,93.2703120708466,"0",1,3,1
10,4,1,0.82611608505249,7.99900388717651,95.2703471183777,"0",0,5,1
10,4,1,0.880099058151245,10.0156300067902,97.2869729995728,"0",2,4,1
10,4,1,0,10.0158388614655,97.2871799468994,"Reward",0,0,1
10,20,1,0.664798021316528,1.99911999702454,109.337004899979,"0",1,1,1
10,20,1,0.48070502281189,3.99915790557861,111.337043046951,"0",1,3,1
10,20,1,0.922876834869385,5.99920511245728,113.337090015411,"0",0,3,1
10,20,1,0.68666410446167,7.99922394752502,115.337109088898,"0",1,0,1
10,20,2,0.996999979019165,10.0158679485321,117.353754043579,"0",2,1,1
10,20,1,0,10.0181159973145,117.355999946594,"Reward",0,0,1
10,20,1,0.605311870574951,1.99938082695007,129.403788089752,"0",1,0,1
10,20,1,0.715128898620605,3.99941396713257,131.403820991516,"0",0,5,1
10,20,1,0.509839057922363,5.99944496154785,133.403851985931,"0",1,1,1
10,20,1,0.490948915481567,7.99941086769104,135.403817892075,"0",0,6,1
10,20,1,0.863856077194214,10.016049861908,137.420455932617,"0",2,3,1
10,20,1,0,10.0162599086761,137.420665025711,"Reward",0,0,1
10,4,1,0.932245969772339,2.01607704162598,149.487262964249,"0",2,6,1
10,4,1,0.813246965408325,4.01605987548828,151.48724603653,"0",2,2,1
10,4,1,0.981657028198242,6.01604294776917,153.48722910881,"0",2,1,1
10,4,2,0.964976072311401,8.01607704162598,155.487262964249,"0",2,6,1
10,4,1,0.962267875671387,9.99936509132385,157.470550060272,"0",0,5,1
10,4,1,0,9.9995710849762,157.470756053925,"Reward",0,0,1
10,8,1,0.743614912033081,1.99908304214478,169.520875930786,"0",0,5,1
10,8,2,0.797404050827026,4.01551008224487,171.537302970886,"0",2,7,1
10,8,1,0.748507022857666,5.99886608123779,173.520658969879,"0",1,4,1
10,8,2,0.947704792022705,8.01556205749512,175.537354946136,"0",2,4,1
10,8,2,0,8.01577305793762,175.537564992905,"Forced travel",0,0,1
10,8,1,0.840603828430176,1.99896717071533,185.570708990097,"0",0,3,1
10,8,1,0.996865034103394,4.01564311981201,187.587384939194,"0",2,0,1
10,8,1,0.898354053497314,6.01566100120544,189.587403059006,"0",2,3,1
10,8,2,0.996937036514282,8.01564598083496,191.587388038635,"0",2,3,1
10,8,1,0.672443866729736,9.99922513961792,193.570967912674,"0",1,5,1
10,8,1,0,9.99948310852051,193.571223020554,"Reward",0,0,1
10,20,1,0.568902015686035,1.9992139339447,205.620827913284,"0",1,5,1
10,20,1,0.571880102157593,3.99920892715454,207.620824098587,"0",1,1,1
10,20,1,0.680372953414917,5.99921298027039,209.62082695961,"0",0,5,1
10,20,1,0.774435043334961,7.99923300743103,211.620847940445,"0",0,4,1
10,20,1,0.881752014160156,10.0159149169922,213.637530088425,"0",2,3,1
10,20,1,0,10.0161230564117,213.637737035751,"Reward",0,0,1
10,4,1,0.666134119033813,1.99899220466614,225.687607049942,"0",1,5,1
10,4,1,0.708261966705322,3.99897003173828,227.687586069107,"0",0,1,1
10,4,2,0.995413064956665,6.01563906669617,229.704255104065,"0",2,3,1
10,4,1,0.673242092132568,7.99898505210876,231.687601089478,"0",1,6,1
10,4,1,0.571370840072632,9.99897909164429,233.687595129013,"0",1,6,1
10,4,1,0,9.99918603897095,233.687801122665,"Reward",0,0,1
10,4,1,0.864482879638672,2.01529407501221,245.754379987717,"0",2,1,1
10,4,2,0.997344017028809,4.01527810096741,247.754364013672,"0",2,6,1
10,4,1,0.659355878829956,5.99861693382263,249.737703084946,"0",1,0,1
10,4,1,0.809242963790894,7.99867296218872,251.737760066986,"0",0,0,1
10,4,1,0.535091161727905,9.99863004684448,253.737715959549,"0",0,0,1
10,4,1,0,9.99994492530823,253.739030122757,"Reward",0,0,1
10,4,1,0.713197946548462,1.99896812438965,265.787776947021,"0",0,5,1
10,4,1,0.913466215133667,4.01568412780762,267.804493904114,"0",2,5,1
10,4,1,0.896670818328857,6.01565313339233,269.804461956024,"0",2,3,1
10,4,1,0.643301010131836,7.99901700019836,271.787826061249,"0",1,6,1
10,4,1,0.865257978439331,10.0156919956207,273.804501056671,"0",2,5,1
10,4,1,0,10.0159001350403,273.804708003998,"Reward",0,0,1
10,20,1,0.668120145797729,1.99903416633606,285.85466003418,"0",1,6,1
10,20,1,0.856432914733887,3.99895596504211,287.854582071304,"0",0,5,1
10,20,1,0.54025411605835,5.99896502494812,289.854589939117,"0",1,7,1
10,20,1,0.725292921066284,7.9990119934082,291.85463809967,"0",0,2,1
10,20,1,0.456510066986084,9.99903702735901,293.854661941528,"0",1,7,1
10,20,1,0,9.99924206733704,293.854866981506,"Reward",0,0,1
10,8,1,0.833827018737793,1.99880480766296,305.904674053192,"0",1,2,1
10,8,1,0.730835914611816,4.01549386978149,307.921363115311,"0",2,5,1
10,8,1,0.930836915969849,6.01551699638367,309.921386003494,"0",2,4,1
10,8,2,0.996255874633789,8.01555800437927,311.92142701149,"0",2,6,1
10,8,1,0.964860916137695,10.0155777931213,313.921447038651,"0",2,3,1
10,8,1,0,10.0157859325409,313.921653032303,"Reward",0,0,1
10,20,1,0.758507013320923,1.99863195419312,325.971481084824,"0",0,5,1
10,20,1,0.702611923217773,3.99868512153625,327.971534013748,"0",1,1,1
10,20,1,0.592051029205322,5.99844312667847,329.97129201889,"0",1,0,1
10,20,1,0.914966106414795,8.01531505584717,331.988163948059,"0",2,5,1
10,20,1,0.782861948013306,9.99867510795593,333.971524000168,"0",0,4,1
10,20,1,0,9.99888205528259,333.97172999382,"Reward",0,0,1
10,8,1,0.781198024749756,1.99834704399109,346.021260976791,"0",0,3,1
10,8,1,0.633759021759033,3.99874305725098,348.021656990051,"0",0,1,1
10,8,1,0.690693140029907,5.99872493743896,350.021639108658,"0",1,7,1
10,8,1,0.533891916275024,7.99871492385864,352.021629095078,"0",0,1,1
10,8,1,0.933387994766235,9.99881386756897,354.021728038788,"0",0,4,1
10,8,1,0,9.99902296066284,354.021935939789,"Reward",0,0,1
10,20,1,0.590610980987549,1.99877691268921,366.071744918823,"0",0,3,1
10,20,1,0.45621395111084,3.99879002571106,368.071758031845,"0",0,3,1
10,20,1,0.552601099014282,5.99875497817993,370.07172203064,"0",1,4,1
10,20,1,0.505038022994995,7.99879097938538,372.071758985519,"0",1,3,1
10,20,1,0.667759895324707,9.99881887435913,374.071787118912,"0",0,3,1
10,20,1,0,10.0001339912415,374.073101043701,"Reward",0,0,1
10,8,1,0.848479986190796,2.0161030292511,386.138972997665,"0",2,2,1
10,8,1,0.756895065307617,3.99898505210876,388.121855974197,"0",0,0,1
10,8,1,0.913947105407715,5.99903702735901,390.121907949448,"0",1,2,1
10,8,2,0.996029853820801,8.01567411422729,392.138544082642,"0",2,6,1
10,8,1,0.780633926391602,10.0157968997955,394.138668060303,"0",2,1,1
10,8,1,0,10.0160009860992,394.138870954514,"Reward",0,0,1
10,8,1,0.914196968078613,2.01632690429688,406.205773115158,"0",2,6,1
10,8,1,0.792829036712646,3.99859690666199,408.188043117523,"0",1,6,1
10,8,1,0.622814893722534,5.9992949962616,410.188740968704,"0",0,6,1
10,8,1,0.653539896011353,7.99929904937744,412.18874502182,"0",0,5,1
10,8,1,0.453923940658569,9.99927496910095,414.188720941544,"0",1,5,1
10,8,1,0,9.99948596954346,414.188930988312,"Reward",0,0,1
2,8,1,0.776984214782715,1.9986400604248,432.755846977234,"0",0,0,2
2,8,1,0,1.99884796142578,432.756052970886,"Reward",0,0,2
2,20,1,0.646684885025024,1.99899005889893,452.806307077408,"0",0,0,2
2,20,1,0,1.99919986724854,452.806517124176,"Reward",0,0,2
2,4,1,0.79475212097168,1.99892497062683,472.8568379879,"0",1,2,2
2,4,1,0,1.99914383888245,472.857055902481,"Reward",0,0,2
2,20,1,0.633275985717773,1.99890089035034,492.907296895981,"0",1,6,2
2,20,1,0,1.99911379814148,492.907507896423,"Reward",0,0,2
2,4,1,0.57047700881958,1.99883699417114,512.957767009735,"0",1,1,2
2,4,1,0,2.00106191635132,512.959990978241,"Reward",0,0,2
2,8,1,0.639963865280151,1.99942898750305,533.008285999298,"0",1,0,2
2,8,1,0,1.99963784217834,533.008493900299,"Reward",0,0,2
2,8,1,0.622311115264893,1.99888014793396,553.058768987656,"0",1,0,2
2,8,1,0,1.99998307228088,553.059870958328,"Reward",0,0,2
2,8,2,0.915136814117432,2.01567602157593,573.12591791153,"0",2,5,2
2,8,2,0,2.01679396629333,573.127036094666,"Forced travel",0,0,2
2,20,1,0.98183798789978,2.0160698890686,591.176817893982,"0",2,0,2
2,20,1,0,2.01627588272095,591.17702293396,"Reward",0,0,2
2,4,1,0.896501064300537,2.01581883430481,611.243782043457,"0",2,6,2
2,4,1,0,2.0169370174408,611.244898080826,"Reward",0,0,2
2,4,1,0.627547979354858,1.99931788444519,631.294074058533,"0",0,6,2
2,4,1,0,2.00040793418884,631.295162916183,"Reward",0,0,2
2,20,1,0.697496891021729,1.99892687797546,651.344536066055,"0",0,1,2
2,20,1,0,2.00025486946106,651.345863103867,"Reward",0,0,2
2,4,1,0.664339065551758,2.01552104949951,672.006769895554,"0",2,3,2
2,4,1,0,2.01572918891907,672.006977081299,"Reward",0,0,2
2,4,1,0.731884956359863,2.01579403877258,692.074039936066,"0",2,5,2
2,4,1,0,2.01600193977356,692.074247121811,"Reward",0,0,2
2,20,1,0.878655195236206,1.99893712997437,712.124511957169,"0",0,7,2
2,20,1,0,1.99916100502014,712.124735116959,"Reward",0,0,2
2,8,1,0.638408184051514,1.99912905693054,732.175076961517,"0",0,1,2
2,8,1,0,2.00047492980957,732.176420927048,"Reward",0,0,2
2,8,1,0.74434494972229,1.99906611442566,752.225528001785,"0",1,4,2
2,8,1,0,1.99927496910095,752.225735902786,"Reward",0,0,2
2,20,1,0.830811977386475,2.01556015014648,772.2927069664,"0",2,7,2
2,20,1,0,2.01576805114746,772.292913913727,"Reward",0,0,2
2,4,1,0.695562124252319,1.99887704849243,792.343154907227,"0",1,1,2
2,4,1,0,1.99996113777161,792.344238042831,"Reward",0,0,2
2,8,1,0.52991795539856,1.99900412559509,812.393666982651,"0",1,4,2
2,8,1,0,2.00010395050049,812.3947660923,"Reward",0,0,2
2,4,1,0.651210069656372,1.99896216392517,832.444195985794,"0",0,3,2
2,4,1,0,1.99918603897095,832.444418907166,"Reward",0,0,2
14,8,1,0.780741930007935,2.0159010887146,858.244839906693,"0",2,6,3
14,8,1,0.703881025314331,3.9992470741272,860.228185892105,"0",1,3,3
14,8,1,0.562376022338867,5.99875402450562,862.227693080902,"0",1,0,3
14,8,1,0.490658044815063,7.99960517883301,864.228543996811,"0",0,0,3
14,8,1,0.781029939651489,10.0161061286926,866.245044946671,"0",2,3,3
14,8,1,0.609508991241455,11.9994850158691,868.228424072266,"0",1,3,3
14,8,1,0.478457927703857,13.9995610713959,870.228500127792,"0",1,0,3
14,8,1,0,13.9997680187225,870.228706121445,"Reward",0,0,3
14,20,1,0.777591943740845,1.99904918670654,878.278522014618,"0",0,7,3
14,20,1,0.608468055725098,3.99921417236328,880.278687000275,"0",1,2,3
14,20,1,0.66655707359314,5.99931406974792,882.278786897659,"0",0,2,3
14,20,1,0.714802980422974,8.01604008674622,884.295512914658,"0",2,0,3
14,20,2,0.996681928634644,10.0160222053528,886.295495033264,"0",2,1,3
14,20,1,0.514852046966553,12.0160779953003,888.295550107956,"0",2,5,3
14,20,1,0.632359027862549,13.9994339942932,890.278908014297,"0",0,5,3
14,20,1,0,14.0007581710815,890.280230045319,"Reward",0,0,3
14,8,1,0.648565053939819,2.01569294929504,898.345763921738,"0",2,0,3
14,8,1,0.797183036804199,3.99886894226074,900.328939914703,"0",1,7,3
14,8,1,0.589389085769653,5.99921488761902,902.32928609848,"0",0,5,3
14,8,1,0.620791912078857,7.9991500377655,904.329221010208,"0",1,4,3
14,8,1,0.980495929718018,10.0159409046173,906.346012115479,"0",2,2,3
14,8,1,0.643555164337158,11.9993259906769,908.32939696312,"0",1,2,3
14,8,1,0.614860057830811,14.0160779953003,910.346148014069,"0",2,5,3
14,8,1,0,14.0173909664154,910.347460985184,"Reward",0,0,3
14,20,1,0.847688913345337,2.01554203033447,918.41290307045,"0",2,2,3
14,20,1,0.947442054748535,4.01565909385681,920.413019895554,"0",2,3,3
14,20,1,0.615561962127686,5.99902319908142,922.396384000778,"0",0,4,3
14,20,1,0.781554937362671,8.01577806472778,924.41313791275,"0",2,6,3
14,20,1,0.915172100067139,10.0158820152283,926.413243055344,"0",2,2,3
14,20,1,0.598355054855347,11.9992032051086,928.396564006805,"0",0,4,3
14,20,1,0.680583953857422,14.0159480571747,930.41330909729,"0",2,5,3
14,20,1,0,14.0161561965942,930.413516044617,"Reward",0,0,3
14,4,0,0.179473876953125,0.182673931121826,936.647197961807,"0",1,0,3
14,4,0,0,0.183938026428223,936.648462057114,"Quit",0,0,3
14,4,0,1.43425679206848,1.43429684638977,942.115531921387,"0",1,6,3
14,4,0,0,1.43449282646179,942.115727901459,"Quit",0,0,3
14,8,1,0.626852035522461,2.00013589859009,948.147067070007,"0",1,6,3
14,8,1,0.526448965072632,4.00018095970154,950.1471118927,"0",0,6,3
14,8,1,0.609792947769165,6.00023293495178,952.147164106369,"0",0,3,3
14,8,1,0.494415998458862,8.00024104118347,954.147171974182,"0",1,1,3
14,8,1,0.526490926742554,10.0003159046173,956.147247076035,"0",0,6,3
14,8,1,0.714977025985718,12.000412940979,958.147344112396,"0",2,1,3
14,8,1,0.564584970474243,14.0004739761353,960.14740395546,"0",0,4,3
14,8,1,0,14.0006830692291,960.147613048553,"Reward",0,0,3
14,20,1,0.665426015853882,2.01574897766113,968.214251995087,"0",2,4,3
14,20,2,0.780366897583008,4.01581692695618,970.214319944382,"0",2,6,3
14,20,1,0.590979099273682,5.99919199943542,972.197695016861,"0",0,2,3
14,20,1,0.64835000038147,8.0159227848053,974.214425086975,"0",2,3,3
14,20,1,0.781167030334473,9.9992949962616,976.197798013687,"0",0,3,3
14,20,1,0.810477018356323,11.9993448257446,978.197848081589,"0",0,0,3
14,20,1,0.690224885940552,13.9993598461151,980.197863101959,"0",0,2,3
14,20,1,0,13.9995889663696,980.198091030121,"Reward",0,0,3
14,4,0,0.283388137817383,0.302781820297241,986.55185508728,"0",0,0,3
14,4,0,0,0.302917957305908,986.551990032196,"Quit",0,0,3
14,20,1,0.598909139633179,1.99894118309021,992.581516027451,"0",1,4,3
14,20,1,0.576821088790894,3.9990119934082,994.581587076187,"0",1,0,3
14,20,1,0.765988826751709,5.99902606010437,996.581600904465,"0",0,7,3
14,20,1,0.484322071075439,7.99916505813599,998.581739902496,"0",0,0,3
14,20,1,0.681089878082275,10.0157029628754,1000.59827709198,"0",2,1,3
14,20,2,0.997030973434448,12.0161490440369,1002.59872412682,"0",2,2,3
14,20,1,0.697973966598511,13.9992949962616,1004.58187007904,"0",1,5,3
14,20,1,0,13.9995031356812,1004.58207702637,"Reward",0,0,3
14,8,1,0.731829881668091,2.01567101478577,1012.64870095253,"0",2,4,3
14,8,1,0.544936180114746,3.99906897544861,1014.63209891319,"0",0,3,3
14,8,1,0.676232099533081,5.99959897994995,1016.63262891769,"0",0,5,3
14,8,1,0.615483999252319,7.9991660118103,1018.63219594955,"0",1,5,3
14,8,1,0.534091949462891,9.99935507774353,1020.63238596916,"0",0,3,3
14,8,1,0.625645160675049,11.999253988266,1022.63228392601,"0",1,1,3
14,8,1,0.492033004760742,13.9991900920868,1024.63222002983,"0",0,5,3
14,8,1,0,13.9993999004364,1024.63242912292,"Reward",0,0,3
14,4,0,0.408780097961426,0.428320169448853,1031.11192107201,"0",0,6,3
14,4,0,0,0.428476095199585,1031.11207699776,"Quit",0,0,3
14,4,0,0.508806943893433,0.513347864151001,1035.66377592087,"0",1,3,3
14,4,0,0,0.513499021530151,1035.66392707825,"Quit",0,0,3
14,4,0,0.969683170318604,0.973153114318848,1040.67369198799,"0",1,2,3
14,4,0,0,0.973290205001831,1040.673828125,"Quit",0,0,3
14,20,1,0.949954986572266,1.99910998344421,1046.69959998131,"0",0,5,3
14,20,1,0.523650884628296,3.99913001060486,1048.69962000847,"0",1,3,3
14,20,1,0.528720140457153,5.99916887283325,1050.69965910912,"0",1,0,3
14,20,1,0.602959871292114,7.9992299079895,1052.69971990585,"0",0,5,3
14,20,1,0.529201984405518,9.99927687644958,1054.69976711273,"0",0,0,3
14,20,1,0.540043830871582,11.9993348121643,1056.69982409477,"0",0,4,3
14,20,1,0.931484937667847,14.0160439014435,1058.71653389931,"0",2,6,3
14,20,1,0,14.0162498950958,1058.71673893929,"Reward",0,0,3
14,20,1,0.772074937820435,1.99897789955139,1066.76669692993,"0",1,7,3
14,20,1,0.520838975906372,3.99903798103333,1068.76675701141,"0",0,2,3
14,20,1,0.67970609664917,5.99910378456116,1070.76682305336,"0",0,7,3
14,20,1,0.557443141937256,7.99921488761902,1072.766933918,"0",0,4,3
14,20,1,0.61189603805542,9.99921083450317,1074.7669301033,"0",1,2,3
14,20,1,0.50780200958252,11.9993069171906,1076.7670249939,"0",1,2,3
14,20,1,0.630035161972046,14.0160069465637,1078.78372597694,"0",2,0,3
14,20,1,0,14.0171499252319,1078.78486800194,"Reward",0,0,3
14,8,1,0.815134048461914,2.01575803756714,1086.85059809685,"0",2,0,3
14,8,1,0.635862112045288,3.9991180896759,1088.83395791054,"0",0,2,3
14,8,1,0.815039157867432,6.01586818695068,1090.85070705414,"0",2,7,3
14,8,1,0.964789867401123,8.01589107513428,1092.850730896,"0",2,2,3
14,8,1,0.740360975265503,9.99932599067688,1094.83416604996,"0",1,2,3
14,8,1,0.711470127105713,11.9992871284485,1096.83412599564,"0",1,1,3
14,8,1,0.625888824462891,13.9993760585785,1098.83421611786,"0",0,4,3
14,8,1,0,14.0006971359253,1098.83553600311,"Reward",0,0,3
14,8,1,0.634330034255981,1.99896311759949,1106.88439393044,"0",1,6,3
14,8,1,0.613210916519165,4.01570916175842,1108.90113997459,"0",2,0,3
14,8,1,0.729331016540527,6.01567912101746,1110.90110993385,"0",2,4,3
14,8,1,0.670596837997437,7.99917101860046,1112.88460111618,"0",1,5,3
14,8,1,0.502991914749146,9.99917602539062,1114.88460707664,"0",0,4,3
14,8,2,1.00009799003601,11.9992570877075,1116.88468909264,"0",1,6,3
14,8,1,0.754066944122314,13.999302148819,1118.88473296165,"0",0,3,3
14,8,1,0,13.9995121955872,1118.88494205475,"Reward",0,0,3
14,20,1,0.665112972259521,2.01565599441528,1126.95157504082,"0",2,3,3
14,20,1,0.881500005722046,4.01569890975952,1128.95161890984,"0",2,1,3
14,20,1,0.648062944412231,5.99921202659607,1130.93513202667,"0",1,5,3
14,20,1,0.614284992218018,7.99918103218079,1132.93510103226,"0",0,7,3
14,20,1,0.506081104278564,9.99921584129333,1134.93513607979,"0",0,4,3
14,20,1,0.913581848144531,12.0159339904785,1136.95185399055,"0",2,0,3
14,20,1,0.456603050231934,13.9992799758911,1138.93519997597,"0",0,6,3
14,20,1,0,14.0003609657288,1138.93628001213,"Reward",0,0,3
14,8,1,0.580574035644531,2.01628589630127,1147.00264310837,"0",2,3,3
14,8,1,0.69781494140625,4.01580095291138,1149.00215792656,"0",2,7,3
14,8,1,0.93031907081604,6.0158519744873,1151.00220894814,"0",2,6,3
14,8,1,0.554636001586914,7.99922585487366,1152.98558306694,"0",1,2,3
14,8,1,0.58620285987854,9.99922895431519,1154.98558497429,"0",1,5,3
14,8,1,0.530904054641724,11.9993088245392,1156.98566603661,"0",1,7,3
14,8,1,0.814667940139771,14.0160598754883,1159.00241708755,"0",2,7,3
14,8,1,0,14.0162658691406,1159.00262212753,"Reward",0,0,3
14,4,0,0.332730054855347,0.334623098373413,1165.38798904419,"0",2,5,3
14,4,0,0,0.335937976837158,1165.38930392265,"Quit",0,0,3
14,8,1,0.867866039276123,1.99926590919495,1171.4193611145,"0",0,2,3
14,8,1,0.564183950424194,4.01601600646973,1173.43611097336,"0",2,4,3
14,8,1,0.554290056228638,5.99940085411072,1175.41949605942,"0",1,2,3
14,8,1,0.516832113265991,7.99942302703857,1177.41951799393,"0",0,7,3
14,8,1,0.466278076171875,9.99948287010193,1179.41957807541,"0",0,6,3
14,8,1,0.583648920059204,11.9994878768921,1181.41958212852,"0",1,0,3
14,8,1,0.563655853271484,14.0162148475647,1183.43631005287,"0",2,4,3
14,8,1,0,14.0164148807526,1183.43650889397,"Reward",0,0,3
14,20,1,0.615586996078491,2.01650595664978,1191.50381708145,"0",2,5,3
14,20,1,0.519848823547363,3.99929094314575,1193.48660111427,"0",0,3,3
14,20,1,0.613943815231323,6.01601600646973,1195.50332689285,"0",2,3,3
14,20,1,0.613041162490845,7.99938702583313,1197.48669791222,"0",1,4,3
14,20,1,0.848687887191772,9.99942994117737,1199.4867401123,"0",2,7,3
14,20,1,0.981251001358032,12.0161859989166,1201.50349712372,"0",2,4,3
14,20,1,0.652487993240356,13.9997310638428,1203.48704195023,"0",0,3,3
14,20,1,0,13.9999890327454,1203.48729801178,"Reward",0,0,3
14,4,0,1.25079798698425,1.25083899497986,1210.83892202377,"0",0,3,3
14,4,0,0,1.25103998184204,1210.83912301064,"Quit",0,0,3
14,4,0,0.737524032592773,0.740407943725586,1215.61203503609,"0",1,0,3
14,4,0,0,0.740545034408569,1215.61217212677,"Quit",0,0,3
14,8,0,0.305099010467529,0.325026988983154,1219.96334409714,"0",0,7,3
14,8,0,0,0.326275110244751,1219.96459102631,"Quit",0,0,3
14,4,0,0.290828943252563,0.294269800186157,1224.28256511688,"0",1,2,3
14,4,0,0,0.294406890869141,1224.28270196915,"Quit",0,0,3
14,20,1,0.56647801399231,1.99996399879456,1230.32084012032,"0",1,7,3
14,20,1,0.457444190979004,4.00005006790161,1232.320925951,"0",1,4,3
14,20,1,0.597839117050171,6.00009393692017,1234.32097005844,"0",0,5,3
14,20,2,0.996111869812012,8.00012111663818,1236.32099795341,"0",2,3,3
14,20,1,0.458644866943359,10.0001630783081,1238.32103896141,"0",1,5,3
14,20,1,0.69840407371521,12.0002300739288,1240.32110595703,"0",2,7,3
14,20,1,0.798398971557617,14.0002989768982,1242.32117509842,"0",2,0,3
14,20,1,0,14.0005059242249,1242.32138109207,"Reward",0,0,3
14,20,1,0.661495923995972,1.99894785881042,1250.37138605118,"0",0,5,3
14,20,1,0.561237096786499,3.99897503852844,1252.37141299248,"0",0,4,3
14,20,1,0.613999843597412,5.99904704093933,1254.37148499489,"0",0,2,3
14,20,2,0.997026205062866,8.01577591896057,1256.38821411133,"0",2,2,3
14,20,1,0.660327911376953,9.99913597106934,1258.37157392502,"0",0,1,3
14,20,1,0.499260902404785,11.9991989135742,1260.37163710594,"0",0,1,3
14,20,1,0.89764404296875,13.9992589950562,1262.37169694901,"0",1,6,3
14,20,1,0,13.9994659423828,1262.37190294266,"Reward",0,0,3
10,20,1,0.483206033706665,2.00053596496582,1355.92309808731,"0",1,3,4
10,20,1,0.510299921035767,4.00059294700623,1357.92315411568,"0",1,1,4
10,20,1,0.536545038223267,6.00058794021606,1359.92314910889,"0",0,4,4
10,20,1,0.438517093658447,8.00065088272095,1361.92321205139,"0",1,3,4
10,20,1,0.368628025054932,10.0006349086761,1363.92319607735,"0",1,5,4
10,20,1,0,10.00084400177,1363.92340397835,"Reward",0,0,4
10,8,1,0.577265977859497,1.9989550113678,1375.97338199615,"0",1,6,4
10,8,1,0.647930145263672,4.01606583595276,1377.99049210548,"0",2,7,4
10,8,2,0.996164798736572,6.01570582389832,1379.99013209343,"0",2,7,4
10,8,1,0.479218006134033,7.99902200698853,1381.97344899178,"0",0,4,4
10,8,1,0.480888843536377,9.99909996986389,1383.97352695465,"0",0,0,4
10,8,1,0,10.000422000885,1383.97484707832,"Reward",0,0,4
10,4,0,0.33253002166748,0.334301948547363,1394.35895991325,"0",2,0,4
10,4,0,0,0.334494113922119,1394.35915207863,"Quit",0,0,4
10,8,1,0.580504894256592,2.0156409740448,1404.40713405609,"0",2,0,4
10,8,1,0.550735950469971,3.99902510643005,1406.39051699638,"0",1,6,4
10,8,1,0.697616100311279,6.01568293571472,1408.40717506409,"0",2,7,4
10,8,1,0.481374025344849,7.99917507171631,1410.39066696167,"0",1,4,4
10,8,1,0.460218906402588,9.9991021156311,1412.39059400558,"0",1,5,4
10,8,1,0,10.0004370212555,1412.39192795753,"Reward",0,0,4
10,20,1,0.634440898895264,1.99890804290771,1424.44076490402,"0",0,2,4
10,20,1,0.638700008392334,3.99899196624756,1426.44084906578,"0",1,2,4
10,20,1,0.603294849395752,5.99898099899292,1428.44083809853,"0",1,5,4
10,20,1,0.479026079177856,7.99900507926941,1430.44086098671,"0",1,2,4
10,20,1,0.481739044189453,9.99904608726501,1432.44090294838,"0",1,1,4
10,20,1,0,9.99925708770752,1432.44111299515,"Reward",0,0,4
10,4,0,0.504902124404907,0.524165153503418,1443.01630806923,"0",0,6,4
10,4,0,0,0.524959087371826,1443.0171020031,"Quit",0,0,4
10,4,0,0.265614986419678,0.267387866973877,1451.30957007408,"0",2,3,4
10,4,0,0,0.268700838088989,1451.31088089943,"Quit",0,0,4
10,20,1,0.523898839950562,1.99894499778748,1461.34131598473,"0",1,4,4
10,20,1,0.543258905410767,3.99897789955139,1463.34134912491,"0",0,4,4
10,20,1,0.731378078460693,6.01569604873657,1465.35806703568,"0",2,6,4
10,20,1,0.567225933074951,7.9990439414978,1467.34141492844,"0",0,5,4
10,20,2,0.99697208404541,10.0157799720764,1469.35815000534,"0",2,7,4
10,20,1,0,10.0169179439545,1469.35928797722,"Reward",0,0,4
10,8,1,0.615223169326782,2.01573705673218,1481.42498397827,"0",2,6,4
10,8,1,0.572375059127808,3.99909806251526,1483.40834498405,"0",0,7,4
10,8,1,0.503791093826294,5.99911189079285,1485.40835905075,"0",0,3,4
10,8,2,0.831943035125732,8.01582598686218,1487.4250729084,"0",2,2,4
10,8,1,0.730034828186035,9.99918293952942,1489.40843009949,"0",0,6,4
10,8,1,0,9.99939393997192,1489.40863990784,"Reward",0,0,4
10,8,1,0.534739017486572,1.9991660118103,1501.45861792564,"0",0,4,4
10,8,1,0.563261985778809,3.99918007850647,1503.45863103867,"0",1,5,4
10,8,1,0.438561916351318,5.9991819858551,1505.45863389969,"0",1,7,4
10,8,1,0.964303016662598,8.01590895652771,1507.47536110878,"0",2,1,4
10,8,2,0.997048139572144,10.0159931182861,1509.47544503212,"0",2,2,4
10,8,1,0,10.0161979198456,1509.47564792633,"Reward",0,0,4
10,20,1,0.573890924453735,1.99891209602356,1521.5255279541,"0",0,4,4
10,20,1,0.674677848815918,3.99895906448364,1523.52557492256,"0",0,7,4
10,20,1,0.797602891921997,5.99901294708252,1525.52562904358,"0",1,0,4
10,20,1,0.748302936553955,8.01572012901306,1527.54233694077,"0",2,2,4
10,20,1,0.565356969833374,9.99903798103333,1529.52565407753,"0",1,1,4
10,20,1,0,10.001266002655,1529.52788090706,"Reward",0,0,4
10,4,0,0.459341049194336,0.463797092437744,1540.0405819416,"0",1,1,4
10,4,0,0,0.463934183120728,1540.04071807861,"Quit",0,0,4
10,20,1,0.568068981170654,1.99888181686401,1550.07589507103,"0",0,6,4
10,20,2,0.518402099609375,3.99888491630554,1552.07589793205,"0",1,5,4
10,20,1,0.448872089385986,5.99889588356018,1554.07590889931,"0",1,3,4
10,20,2,0.996906995773315,8.01561498641968,1556.09262800217,"0",2,5,4
10,20,2,0,8.01692891120911,1556.09394097328,"Forced travel",0,0,4
10,8,1,0.770406007766724,1.9983081817627,1566.12540698051,"0",0,3,4
10,8,1,0.68234395980835,4.01563620567322,1568.14273500443,"0",2,0,4
10,8,1,0.881339073181152,6.01570320129395,1570.14280200005,"0",2,2,4
10,8,1,0.830053091049194,8.01568913459778,1572.14278793335,"0",2,4,4
10,8,1,0.643817186355591,9.99895906448364,1574.12605810165,"0",0,1,4
10,8,1,0,9.9991672039032,1574.12626504898,"Reward",0,0,4
10,8,1,0.64116096496582,1.99889016151428,1586.17628598213,"0",1,4,4
10,8,1,0.465941905975342,3.99889802932739,1588.17629289627,"0",1,3,4
10,8,1,0.626722097396851,5.99892997741699,1590.17632508278,"0",1,6,4
10,8,1,0.493483066558838,7.99913811683655,1592.17653203011,"0",1,3,4
10,8,1,0.726754903793335,9.99902510643005,1594.17641997337,"0",0,5,4
10,8,1,0,9.99923300743103,1594.1766269207,"Reward",0,0,4
10,20,1,0.697667121887207,2.01590418815613,1606.24320602417,"0",2,3,4
10,20,1,0.572159051895142,3.9992561340332,1608.22655797005,"0",0,1,4
10,20,1,0.565871000289917,5.99929809570312,1610.22659993172,"0",1,3,4
10,20,2,0.914124965667725,8.01600503921509,1612.24330711365,"0",2,6,4
10,20,1,0.721320867538452,9.99932718276978,1614.22662806511,"0",1,6,4
10,20,1,0,9.99953508377075,1614.22683596611,"Reward",0,0,4
10,4,0,0.651520967483521,0.671200037002563,1624.96573495865,"0",0,5,4
10,4,0,0,0.67133903503418,1624.96587491035,"Quit",0,0,4
10,4,1,0.582170963287354,1.99890899658203,1634.99354791641,"0",0,0,4
10,4,1,0.580377101898193,3.99894595146179,1636.99358510971,"0",1,0,4
10,4,1,0.718398094177246,5.99895405769348,1638.99359297752,"0",0,6,4
10,4,1,0.697262048721313,7.99898195266724,1640.99361991882,"0",1,4,4
10,4,1,0.514660835266113,9.99899792671204,1642.99363708496,"0",1,2,4
10,4,1,0,9.99920606613159,1642.99384403229,"Reward",0,0,4
10,4,1,0.733624935150146,1.99891996383667,1655.04380512238,"0",0,4,4
10,4,1,0.556318044662476,3.99890398979187,1657.04378890991,"0",1,6,4
10,4,1,0.455509901046753,5.99897694587708,1659.04386210442,"0",0,1,4
10,4,1,0.526014089584351,7.99898600578308,1661.0438709259,"0",0,2,4
10,4,1,0.676538944244385,9.99903202056885,1663.04391694069,"0",1,3,4
10,4,1,0,10.0003509521484,1663.04523491859,"Reward",0,0,4
10,20,1,0.61499810218811,2.01574492454529,1675.11080002785,"0",2,4,4
10,20,1,0.518152952194214,3.99896001815796,1677.09401392937,"0",0,2,4
10,20,1,0.680873155593872,5.99901103973389,1679.09406495094,"0",1,2,4
10,20,2,0.997617959976196,7.99905896186829,1681.0941119194,"0",2,0,4
10,20,1,0.539252042770386,9.99892210960388,1683.09397602081,"0",0,1,4
10,20,1,0,9.99913001060486,1683.09418296814,"Reward",0,0,4
10,8,1,0.55508017539978,1.99901819229126,1695.14430499077,"0",0,6,4
10,8,1,0.534473180770874,3.99901103973389,1697.14429807663,"0",1,2,4
10,8,1,0.511091947555542,5.99902200698853,1699.14430904388,"0",1,7,4
10,8,1,0.84695291519165,8.01571822166443,1701.16100406647,"0",2,6,4
10,8,1,0.549793004989624,9.99910402297974,1703.14439201355,"0",1,4,4
10,8,1,0,9.99931216239929,1703.1445980072,"Reward",0,0,4
10,20,1,0.764136075973511,1.99896192550659,1715.19450092316,"0",1,6,4
10,20,2,0.995243072509766,4.01570987701416,1717.21124911308,"0",2,6,4
10,20,1,0.549003124237061,5.999027967453,1719.1945669651,"0",1,1,4
10,20,1,0.914766073226929,8.01569294929504,1721.21123194695,"0",2,6,4
10,20,1,0.663707971572876,9.99911284446716,1723.19465303421,"0",0,5,4
10,20,1,0,9.99932193756104,1723.19485998154,"Reward",0,0,4
10,4,1,0.62929105758667,1.99881887435913,1735.24476408958,"0",1,2,4
10,4,1,0.594245910644531,3.99886798858643,1737.24481296539,"0",0,5,4
10,4,2,0.996041059494019,6.01561903953552,1739.26156401634,"0",2,4,4
10,4,1,0.49796199798584,7.99920296669006,1741.2451479435,"0",0,3,4
10,4,1,0.947097063064575,10.0156388282776,1743.26158308983,"0",2,1,4
10,4,1,0,10.0158460140228,1743.26179003716,"Reward",0,0,4
10,8,1,0.530487060546875,1.99907612800598,1755.31175494194,"0",1,2,4
10,8,1,0.91398811340332,4.01574301719666,1757.32842111588,"0",2,3,4
10,8,1,0.758183002471924,5.99906420707703,1759.31174302101,"0",0,1,4
10,8,1,0.532786130905151,7.99913811683655,1761.31181812286,"0",0,1,4
10,8,1,0.619590044021606,9.99911999702454,1763.31179904938,"0",0,5,4
10,8,1,0,9.99932813644409,1763.3120059967,"Reward",0,0,4
2,4,1,0.632162094116211,2.01619982719421,1781.2454020977,"0",2,6,5
2,4,1,0,2.01641392707825,1781.24561500549,"Reward",0,0,5
2,8,1,0.765917062759399,2.01625490188599,1801.31228590012,"0",2,6,5
2,8,1,0,2.01737785339355,1801.31340789795,"Reward",0,0,5
2,20,1,0.525464057922363,1.99928879737854,1821.36283302307,"0",0,4,5
2,20,1,0,1.99955487251282,1821.36309695244,"Reward",0,0,5
2,8,1,0.546567916870117,1.99918794631958,1841.41285395622,"0",0,5,5
2,8,1,0,2.00030899047852,1841.41397404671,"Reward",0,0,5
2,4,1,0.85994291305542,1.99882102012634,1861.46308803558,"0",0,2,5
2,4,1,0,2.00105786323547,1861.46532392502,"Reward",0,0,5
2,20,1,0.592336177825928,1.99895095825195,1881.51335406303,"0",0,3,5
2,20,1,0,1.99917411804199,1881.51357603073,"Reward",0,0,5
2,4,1,0.73017406463623,2.01536798477173,1901.58013701439,"0",2,2,5
2,4,1,0,2.016676902771,1901.58144497871,"Reward",0,0,5
2,4,1,0.795176982879639,1.99931597709656,1921.63053297997,"0",0,5,5
2,4,1,0,2.00046396255493,1921.63168001175,"Reward",0,0,5
2,8,1,0.781998872756958,2.01569294929504,1941.69749093056,"0",2,6,5
2,8,1,0,2.01591181755066,1941.69770908356,"Reward",0,0,5
2,8,1,0.755518913269043,1.99874711036682,1961.74765491486,"0",1,2,5
2,8,1,0,1.99897003173828,1961.74787712097,"Reward",0,0,5
2,20,1,0.698019027709961,2.01589703559875,1981.81494903564,"0",2,6,5
2,20,1,0,2.01714706420898,1981.81619691849,"Reward",0,0,5
2,20,1,0.739253997802734,1.99904608726501,2001.86500597,"0",1,4,5
2,20,1,0,1.99926614761353,2001.86522507668,"Reward",0,0,5
2,8,1,0.597783088684082,1.99898386001587,2021.91531610489,"0",1,7,5
2,8,1,0,2.000079870224,2021.91640996933,"Reward",0,0,5
2,4,1,0.68166708946228,2.01583504676819,2041.9825220108,"0",2,1,5
2,4,1,0,2.01709604263306,2041.98378205299,"Reward",0,0,5
2,20,1,0.655848979949951,1.9988911151886,2062.03252291679,"0",1,3,5
2,20,1,0,1.99911403656006,2062.03274512291,"Reward",0,0,5
2,20,1,0.72434401512146,1.99887704849243,2082.08281111717,"0",0,7,5
2,20,1,0,2.0000159740448,2082.08394908905,"Reward",0,0,5
2,4,1,0.623794078826904,1.99908018112183,2102.13316702843,"0",0,6,5
2,4,1,0,2.00018715858459,2102.13427305222,"Reward",0,0,5
2,8,1,0.997866153717041,2.01558589935303,2122.20008993149,"0",2,2,5
2,8,1,0,2.01579403877258,2122.20029711723,"Reward",0,0,5
2,8,1,0.850576877593994,1.99903392791748,2142.2504029274,"0",0,5,5
2,8,1,0,1.9992458820343,2142.25061392784,"Reward",0,0,5
2,20,1,0.698307991027832,2.01567816734314,2162.31732106209,"0",2,0,5
2,20,1,0,2.01680397987366,2162.31844711304,"Reward",0,0,5
2,4,1,0.596873044967651,1.99962091445923,2182.367634058,"0",1,3,5
2,4,1,0,1.9998300075531,2182.36784100533,"Reward",0,0,5
14,4,0,0.359148979187012,0.362438917160034,2206.39819192886,"0",1,5,6
14,4,0,0,0.363741874694824,2206.39949512482,"Quit",0,0,6
14,20,1,0.678316116333008,2.00001096725464,2212.43480706215,"0",0,1,6
14,20,1,0.540596008300781,4.00001692771912,2214.43481111526,"0",1,4,6
14,20,1,0.498309850692749,6.00003099441528,2216.43482589722,"0",1,3,6
14,20,1,0.597198009490967,8.00000691413879,2218.43480205536,"0",0,4,6
14,20,1,0.591866970062256,10.000109910965,2220.43490505219,"0",0,5,6
14,20,1,0.590407133102417,12.0001120567322,2222.43490600586,"0",1,2,6
14,20,1,0.602519035339355,14.0001571178436,2224.43495202065,"0",0,2,6
14,20,1,0,14.0003669261932,2224.43516111374,"Reward",0,0,6
14,4,0,0.349397897720337,0.351342916488647,2230.83721590042,"0",2,1,6
14,4,0,0,0.351541996002197,2230.83741497993,"Quit",0,0,6
14,20,1,0.515503883361816,1.99890303611755,2236.86847710609,"0",0,4,6
14,20,1,0.561301946640015,3.99888801574707,2238.86846089363,"0",1,5,6
14,20,1,0.446134090423584,5.99899911880493,2240.86857199669,"0",0,6,6
14,20,1,0.435765027999878,7.99903297424316,2242.86860704422,"0",0,6,6
14,20,1,0.4635329246521,9.99903106689453,2244.86860489845,"0",0,3,6
14,20,1,0.64208197593689,11.9990301132202,2246.8686029911,"0",1,1,6
14,20,1,0.451917886734009,13.9990940093994,2248.86866807938,"0",0,4,6
14,20,1,0,14.0002181529999,2248.86979103088,"Reward",0,0,6
14,8,1,0.610678911209106,1.99924802780151,2256.91879892349,"0",0,0,6
14,8,1,0.480796813964844,3.99929594993591,2258.91884708405,"0",0,6,6
14,8,1,0.648133993148804,6.01600694656372,2260.935557127,"0",2,7,6
14,8,1,0.981784105300903,8.01596713066101,2262.93551802635,"0",2,5,6
14,8,1,0.830895900726318,10.0160179138184,2264.93556904793,"0",2,1,6
14,8,1,0.533041954040527,11.9993870258331,2266.91893792152,"0",0,3,6
14,8,1,0.831663131713867,14.0161519050598,2268.93570303917,"0",2,3,6
14,8,1,0,14.0163719654083,2268.93592190742,"Reward",0,0,6
14,8,1,0.604667901992798,1.99883794784546,2276.98571705818,"0",0,1,6
14,8,1,0.600019931793213,3.99889302253723,2278.98577189445,"0",1,0,6
14,8,1,0.480547189712524,5.9989230632782,2280.98580312729,"0",1,0,6
14,8,1,0.54848313331604,8.01567006111145,2283.00254797935,"0",2,2,6
14,8,1,0.541628122329712,9.99901604652405,2284.98589491844,"0",0,0,6
14,8,1,0.531496047973633,12.015741109848,2287.00261998177,"0",2,3,6
14,8,1,0.463343858718872,13.9991021156311,2288.98598098755,"0",1,3,6
14,8,1,0,13.9993140697479,2288.98619198799,"Reward",0,0,6
14,20,1,0.815128087997437,2.01557898521423,2297.05275893211,"0",2,6,6
14,20,1,0.500118970870972,3.99895000457764,2299.03612995148,"0",0,1,6
14,20,1,0.422569990158081,5.99897193908691,2301.0361521244,"0",0,6,6
14,20,1,0.488174200057983,7.9990439414978,2303.03622412682,"0",0,4,6
14,20,1,0.69821310043335,10.015743970871,2305.0529229641,"0",2,0,6
14,20,1,0.574496984481812,11.9990808963776,2307.0362610817,"0",0,7,6
14,20,1,0.547369956970215,13.9990780353546,2309.03625798225,"0",0,6,6
14,20,1,0,14.000256061554,2309.03743505478,"Reward",0,0,6
14,20,2,1.00003814697266,1.99903106689453,2317.08640098572,"0",1,6,6
14,20,1,0.481939077377319,3.99908399581909,2319.08645296097,"0",0,1,6
14,20,1,0.547044992446899,5.9991090297699,2321.08647894859,"0",0,5,6
14,20,1,0.459505081176758,7.99910688400269,2323.08647704124,"0",1,0,6
14,20,1,0.604281187057495,9.99942994117737,2325.08680105209,"0",0,5,6
14,20,1,0.781274080276489,12.015939950943,2327.10331010818,"0",2,6,6
14,20,1,0.764973163604736,14.0159239768982,2329.10329389572,"0",2,1,6
14,20,1,0,14.0172379016876,2329.10460710526,"Reward",0,0,6
14,4,1,0.915387868881226,2.01567101478577,2337.17006206512,"0",2,6,6
14,4,1,0.914838075637817,4.01570701599121,2339.17009806633,"0",2,6,6
14,4,1,0.486418962478638,5.99910402297974,2341.15349507332,"0",1,0,6
14,4,1,0.495689153671265,7.99916005134583,2343.15355110168,"0",0,2,6
14,4,1,0.626070976257324,9.99912714958191,2345.1535179615,"0",1,7,6
14,4,1,0.422881841659546,12.0158731937408,2347.17026400566,"0",0,6,6
14,4,1,0.482656955718994,13.9992392063141,2349.15363001823,"0",1,6,6
14,4,1,0,13.9994490146637,2349.15383911133,"Reward",0,0,6
14,8,1,0.629743099212646,1.99926900863647,2357.20359802246,"0",0,2,6
14,8,1,0.479389905929565,3.99945878982544,2359.20378804207,"0",1,0,6
14,8,1,0.540394067764282,5.99949193000793,2361.20382094383,"0",0,7,6
14,8,1,0.468020915985107,7.9995219707489,2363.20385098457,"0",0,2,6
14,8,1,0.422228097915649,9.99953079223633,2365.20386004448,"0",0,2,6
14,8,1,0.766798973083496,11.9995279312134,2367.20385694504,"0",1,4,6
14,8,1,0.37434196472168,13.9995858669281,2369.20391511917,"0",1,3,6
14,8,1,0,14.0007288455963,2369.20505690575,"Reward",0,0,6
14,8,1,0.598628044128418,2.01565289497375,2377.27073311806,"0",2,1,6
14,8,1,0.880370140075684,4.01569485664368,2379.27077507973,"0",2,6,6
14,8,1,0.513998985290527,5.99902486801147,2381.25410509109,"0",0,6,6
14,8,1,0.998100996017456,7.99905800819397,2383.25413799286,"0",2,2,6
14,8,1,0.481374979019165,9.99917697906494,2385.25425696373,"0",1,5,6
14,8,1,0.506241083145142,11.9991528987885,2387.25423312187,"0",1,3,6
14,8,1,0.914669990539551,14.0158758163452,2389.27095508575,"0",2,0,6
14,8,1,0,14.0160820484161,2389.27116107941,"Reward",0,0,6
14,4,0,0.276633977890015,0.296148061752319,2395.61816191673,"0",0,1,6
14,4,0,0,0.296285152435303,2395.61829900742,"Quit",0,0,6
14,8,1,0.538872003555298,1.99920105934143,2401.65467190742,"0",0,3,6
14,8,1,0.530688047409058,3.99895596504211,2403.65442705154,"0",1,4,6
14,8,1,0.498757123947144,5.99905109405518,2405.65452194214,"0",1,2,6
14,8,2,0.997075080871582,8.01567816734314,2407.67114901543,"0",2,3,6
14,8,1,0.581546068191528,10.0157890319824,2409.67126011848,"0",2,7,6
14,8,1,0.798439025878906,12.0158791542053,2411.67135000229,"0",2,5,6
14,8,1,0.760139942169189,13.9990251064301,2413.65449595451,"0",0,1,6
14,8,1,0,13.9992311000824,2413.65470099449,"Reward",0,0,6
14,20,1,0.566716194152832,1.99904489517212,2421.70480704308,"0",0,0,6
14,20,1,0.511516094207764,3.99904203414917,2423.70480394363,"0",1,3,6
14,20,2,0.931709051132202,6.01580500602722,2425.72156596184,"0",2,2,6
14,20,1,0.616869926452637,7.99917793273926,2427.70494008064,"0",0,4,6
14,20,1,0.930601119995117,10.015832901001,2429.72159409523,"0",2,7,6
14,20,1,0.55415415763855,11.9994549751282,2431.70521712303,"0",0,1,6
14,20,1,0.636926174163818,13.9993989467621,2433.70515990257,"0",1,2,6
14,20,1,0,13.999608039856,2433.70536899567,"Reward",0,0,6
14,8,1,0.541919946670532,1.99929904937744,2441.75515294075,"0",0,6,6
14,8,2,0.898248910903931,4.01599907875061,2443.77185297012,"0",2,3,6
14,8,1,0.587767124176025,5.99933695793152,2445.75518989563,"0",0,0,6
14,8,1,0.931533813476562,8.01605701446533,2447.77191090584,"0",2,5,6
14,8,1,0.542805910110474,9.99938297271729,2449.75523591042,"0",0,2,6
14,8,2,0.996971845626831,12.0161199569702,2451.77197408676,"0",2,3,6
14,8,2,0,12.0163209438324,2451.77217411995,"Forced travel",0,0,6
14,4,0,0.363911867141724,0.369987010955811,2456.17653608322,"0",1,4,6
14,4,0,0,0.370121002197266,2456.17667102814,"Quit",0,0,6
14,4,0,0.881669044494629,0.883440017700195,2461.08985495567,"0",2,4,6
14,4,0,0,0.884551048278809,2461.09096503258,"Quit",0,0,6
14,20,1,0.609462022781372,1.99918603897095,2467.12208890915,"0",1,1,6
14,20,2,0.456890106201172,3.99914002418518,2469.12204408646,"0",1,4,6
14,20,1,0.475687026977539,5.99915719032288,2471.12206101418,"0",1,5,6
14,20,1,0.831967115402222,8.01581501960754,2473.13871908188,"0",2,4,6
14,20,1,0.653694868087769,9.99917602539062,2475.12208008766,"0",1,6,6
14,20,1,0.797936916351318,12.0158381462097,2477.13874197006,"0",2,1,6
14,20,1,0.604707956314087,13.9992020130157,2479.12210607529,"0",1,7,6
14,20,1,0,13.9994111061096,2479.12231397629,"Reward",0,0,6
14,4,0,0.315828084945679,0.31761908531189,2485.49078202248,"0",2,0,6
14,4,0,0,0.317813158035278,2485.49097704887,"Quit",0,0,6
14,4,0,0.614539861679077,0.617446899414062,2490.14028310776,"0",1,0,6
14,4,0,0,0.618213891983032,2490.14105010033,"Quit",0,0,6
14,8,1,0.600112915039062,1.99918103218079,2496.17211008072,"0",1,3,6
14,8,1,0.545139074325562,3.99917101860046,2498.17210102081,"0",1,3,6
14,8,1,0.681324005126953,6.01586699485779,2500.1887960434,"0",2,0,6
14,8,1,0.564588069915771,8.0159010887146,2502.18882989883,"0",2,7,6
14,8,1,0.814178943634033,10.015881061554,2504.18881011009,"0",2,1,6
14,8,1,0.583494186401367,11.9992060661316,2506.17213511467,"0",1,2,6
14,8,1,0.96347188949585,14.015839099884,2508.18876791,"0",2,2,6
14,8,1,0,14.0160481929779,2508.18897604942,"Reward",0,0,6
14,20,1,0.597723007202148,1.99946308135986,2516.23913693428,"0",0,0,6
14,20,1,0.706768989562988,3.99916911125183,2518.2388420105,"0",0,5,6
14,20,1,0.505808115005493,5.99917101860046,2520.23884391785,"0",0,7,6
14,20,1,0.930448055267334,8.01578903198242,2522.25546193123,"0",2,1,6
14,20,1,0.679033041000366,9.99914407730103,2524.23881697655,"0",0,1,6
14,20,1,0.621189117431641,11.9991500377655,2526.23882293701,"0",0,5,6
14,20,1,0.797976970672607,14.0158410072327,2528.25551390648,"0",2,4,6
14,20,1,0,14.0160479545593,2528.25571894646,"Reward",0,0,6
14,8,1,0.796865940093994,2.01548886299133,2536.32220005989,"0",2,2,6
14,8,2,0.996686935424805,4.01540899276733,2538.32211899757,"0",2,3,6
14,8,1,0.798552989959717,6.01547193527222,2540.32218289375,"0",2,0,6
14,8,1,0.71409010887146,8.01555800437927,2542.32226896286,"0",2,6,6
14,8,1,0.679126024246216,9.99886393547058,2544.30557489395,"0",1,5,6
14,8,1,0.599985122680664,11.9988398551941,2546.30555105209,"0",0,5,6
14,8,1,0.53378701210022,13.998811006546,2548.30552101135,"0",1,5,6
14,8,1,0,13.9999520778656,2548.30666208267,"Reward",0,0,6
14,20,1,0.629068851470947,1.99897003173828,2556.35561299324,"0",0,1,6
14,20,1,0.575001001358032,3.99898791313171,2558.35562992096,"0",1,2,6
14,20,1,0.525882005691528,5.99896502494812,2560.35560798645,"0",0,1,6
14,20,1,0.748136043548584,8.01560592651367,2562.37224912643,"0",2,1,6
14,20,1,0.537176132202148,9.9989378452301,2564.35558104515,"0",0,7,6
14,20,1,0.520231008529663,11.9989578723907,2566.35560107231,"0",0,2,6
14,20,1,0.472064971923828,13.9989528656006,2568.35559606552,"0",0,0,6
14,20,1,0,13.9991619586945,2568.35580396652,"Reward",0,0,6
14,8,1,0.639901876449585,1.99884796142578,2576.40563511848,"0",0,5,6
14,8,1,0.573002815246582,3.99885010719299,2578.40563702583,"0",1,2,6
14,8,1,0.484540224075317,5.99882102012634,2580.40560793877,"0",1,6,6
14,8,1,0.512524127960205,7.99887299537659,2582.40565991402,"0",0,5,6
14,8,2,0.996634006500244,10.0155620574951,2584.42234897614,"0",2,5,6
14,8,1,0.501205921173096,11.998908996582,2586.40569591522,"0",1,2,6
14,8,1,0.489866971969604,13.9988849163055,2588.40567207336,"0",0,4,6
14,8,1,0,13.999095916748,2588.40588212013,"Reward",0,0,6
14,8,1,0.601564168930054,1.99880313873291,2596.45569205284,"0",0,2,6
14,8,1,0.461303949356079,3.99883604049683,2598.45572590828,"0",0,7,6
14,8,1,0.461207151412964,5.99882793426514,2600.45571804047,"0",0,3,6
14,8,1,0.504188060760498,7.99880814552307,2602.45569801331,"0",1,1,6
14,8,1,0.665606021881104,9.99885511398315,2604.45574498177,"0",0,2,6
14,8,1,0.489115953445435,11.9988231658936,2606.45571208,"0",1,0,6
14,8,1,0.763226985931396,14.0155079364777,2608.47239804268,"0",2,0,6
14,8,1,0,14.0166511535645,2608.47354006767,"Reward",0,0,6
14,4,0,0.364075183868408,0.366992950439453,2614.89046597481,"0",1,0,6
14,4,0,0,0.367137908935547,2614.8906109333,"Quit",0,0,6
