"Handling","Reward","Choice","Task.RT","Choice.RT","Experiment.Time","Trial.Outcome","Task.Type","Task.Setup","Block"
10,20,1,0.700814008712769,1.9994809627533,9.04058384895325,"0",1,5,1
10,20,1,0.559906959533691,4.01611495018005,11.0572187900543,"0",2,4,1
10,20,1,0.608675956726074,5.99956798553467,13.0406718254089,"0",1,5,1
10,20,1,0.797047853469849,8.01651191711426,15.0576159954071,"0",0,3,1
10,20,1,0.659250020980835,9.99960088729858,17.0407049655914,"0",0,6,1
10,20,1,0,9.99980592727661,17.0409088134766,"Reward",0,0,1
10,20,1,0.581860065460205,2.01566791534424,29.1243867874146,"0",2,7,1
10,20,1,0.480671167373657,4.01552987098694,31.1242477893829,"0",2,4,1
10,20,1,0.587944030761719,5.99920582771301,33.1079249382019,"0",0,6,1
10,20,1,0.594973087310791,7.99904489517212,35.107764005661,"0",0,6,1
10,20,1,0.772215843200684,9.99928593635559,37.1080048084259,"0",1,2,1
10,20,1,0,9.99949097633362,37.1082088947296,"Reward",0,0,1
10,4,0,0.565883874893188,0.567611932754517,47.7264168262482,"0",2,7,1
10,4,0,0,0.567807912826538,47.7266128063202,"Quit",0,0,1
10,8,1,0.619189023971558,1.99926996231079,57.7581009864807,"0",1,7,1
10,8,1,0.605591058731079,3.99924492835999,59.7580759525299,"0",1,5,1
10,8,1,0.613435029983521,6.01623797416687,61.7750699520111,"0",2,6,1
10,8,1,0.712320804595947,7.99956393241882,63.7583949565887,"0",0,0,1
10,8,1,0.747148990631104,9.99967002868652,65.7584998607635,"0",1,1,1
10,8,1,0,9.99987697601318,65.7587068080902,"Reward",0,0,1
10,8,1,0.717413902282715,1.99931907653809,77.8085708618164,"0",1,1,1
10,8,1,0.579900026321411,4.0158851146698,79.8251359462738,"0",2,6,1
10,8,1,0.752007007598877,5.99920606613159,81.8084578514099,"0",1,4,1
10,8,1,0.581095933914185,8.01609992980957,83.8253529071808,"0",2,2,1
10,8,1,0.855468034744263,9.99928593635559,85.8085379600525,"0",0,1,1
10,8,1,0,9.99949193000793,85.8087418079376,"Reward",0,0,1
10,4,0,0.378637075424194,0.401585102081299,96.2613668441772,"0",0,1,1
10,4,0,0,0.401734113693237,96.2615149021149,"Quit",0,0,1
10,4,0,0.299244165420532,0.300976037979126,104.594306945801,"0",2,7,1
10,4,0,0,0.301167011260986,104.594498872757,"Quit",0,0,1
10,20,1,0.614728927612305,2.01586103439331,114.642630815506,"0",2,6,1
10,20,1,0.747498035430908,4.01568412780762,116.64245390892,"0",2,7,1
10,20,1,0.956266164779663,5.9984929561615,118.625262975693,"0",0,1,1
10,20,2,1.00005912780762,7.99900197982788,120.625771999359,"0",0,1,1
10,20,1,0.58801794052124,9.99934101104736,122.626111984253,"0",1,1,1
10,20,1,0,9.99960112571716,122.626369953156,"Reward",0,0,1
10,4,0,0.265596866607666,0.267338037490845,132.94446182251,"0",2,2,1
10,4,0,0,0.267534971237183,132.944658994675,"Quit",0,0,1
10,8,1,0.774081945419312,1.99912905693054,142.976395845413,"0",1,6,1
10,8,1,0.564709901809692,4.01566195487976,144.992929935455,"0",2,4,1
10,8,1,0.68342399597168,5.99880218505859,146.976068973541,"0",1,3,1
10,8,1,0.563642024993896,8.01572108268738,148.99298787117,"0",2,6,1
10,8,1,0.730374813079834,10.0157480239868,150.993016004562,"0",2,7,1
10,8,1,0,10.0159571170807,150.993223905563,"Reward",0,0,1
10,20,1,0.97679591178894,1.9992949962616,163.043516874313,"0",0,2,1
10,20,1,0.942682027816772,3.99924087524414,165.043463945389,"0",0,0,1
10,20,1,0.713441848754883,6.01575803756714,167.059978961945,"0",2,5,1
10,20,1,0.716418981552124,7.9993269443512,169.043550014496,"0",0,0,1
10,20,1,0.596668004989624,10.0158109664917,171.060032844543,"0",2,6,1
10,20,1,0,10.0160188674927,171.06023979187,"Reward",0,0,1
10,8,1,0.730363130569458,1.99897003173828,183.110252857208,"0",1,1,1
10,8,1,0.677206993103027,3.99906802177429,185.110350847244,"0",0,6,1
10,8,1,0.795911073684692,5.99891495704651,187.110196828842,"0",0,1,1
10,8,1,0.607039928436279,7.99911189079285,189.110394954681,"0",1,0,1
10,8,1,0.731240034103394,9.99929904937744,191.110581874847,"0",1,2,1
10,8,1,0,10.0006670951843,191.11194896698,"Reward",0,0,1
10,8,1,0.649839162826538,1.99935698509216,203.160813808441,"0",1,2,1
10,8,1,0.624929189682007,3.99903297424316,205.160489797592,"0",1,4,1
10,8,1,0.802654981613159,5.99945497512817,207.16091299057,"0",0,2,1
10,8,1,0.714693069458008,8.01576805114746,209.177224874496,"0",2,2,1
10,8,1,0.581125974655151,10.0159049034119,211.177361011505,"0",2,0,1
10,8,1,0,10.016144990921,211.177599906921,"Reward",0,0,1
10,20,1,0.601035118103027,1.99911403656006,223.22761297226,"0",1,5,1
10,20,1,0.514474868774414,4.01604199409485,225.244540929794,"0",2,3,1
10,20,1,0.49724292755127,6.01546621322632,227.243964910507,"0",2,0,1
10,20,1,0.531680822372437,8.01612210273743,229.244621992111,"0",2,4,1
10,20,1,0.731689929962158,10.0158982276917,231.244396924973,"0",2,6,1
10,20,1,0,10.0161061286926,231.244603872299,"Reward",0,0,1
10,8,0,0.44035792350769,0.460009813308716,241.755670785904,"0",0,5,1
10,8,0,0,0.460155963897705,241.755817890167,"Quit",0,0,1
10,4,0,0.249124050140381,0.25085711479187,250.04660987854,"0",2,3,1
10,4,0,0,0.251055002212524,250.046808004379,"Quit",0,0,1
10,4,0,0.267819881439209,0.287240028381348,258.366642951965,"0",0,5,1
10,4,0,0,0.287387847900391,258.366791009903,"Quit",0,0,1
10,20,1,0.717066049575806,1.99911785125732,268.395253896713,"0",1,6,1
10,20,1,0.896827936172485,3.99914693832397,270.39528298378,"0",0,5,1
10,20,1,0.776628017425537,5.99921703338623,272.395351886749,"0",0,4,1
10,20,1,0.573860883712769,7.99903798103333,274.395172834396,"0",0,5,1
10,20,1,0.882106065750122,9.9992139339447,276.395348787308,"0",0,1,1
10,20,1,0,9.99947690963745,276.395610809326,"Reward",0,0,1
10,20,1,0.631527900695801,2.01643395423889,288.46262383461,"0",2,0,1
10,20,1,0.677649021148682,3.999431848526,290.44562292099,"0",0,4,1
10,20,1,0.91477108001709,6.01622796058655,292.462416887283,"0",2,2,1
10,20,1,0.647064924240112,8.01562595367432,294.461815834045,"0",2,7,1
10,20,1,0.715201854705811,9.9993360042572,296.445525884628,"0",1,2,1
10,20,1,0,9.99954199790955,296.445730924606,"Reward",0,0,1
10,8,1,0.629956007003784,1.99912810325623,308.495984792709,"0",1,1,1
10,8,1,0.647190093994141,4.01579999923706,310.512656927109,"0",2,0,1
10,8,1,0.437392950057983,5.99924397468567,312.496098995209,"0",1,4,1
10,8,1,0.530643939971924,8.01587104797363,314.512726783752,"0",2,6,1
10,8,1,0.799213886260986,9.99921107292175,316.496068000793,"0",0,1,1
10,8,1,0,9.99947118759155,316.496325969696,"Reward",0,0,1
10,4,0,0.282500982284546,0.28423810005188,326.83118891716,"0",2,3,1
10,4,0,0,0.284431934356689,326.831381797791,"Quit",0,0,1
10,8,1,0.732249975204468,2.01606392860413,336.879853010178,"0",2,7,1
10,8,1,0.69782280921936,4.01610493659973,338.879894971848,"0",2,4,1
10,8,1,0.551554918289185,5.99943590164185,340.86322593689,"0",1,4,1
10,8,1,0.74087381362915,7.99938607215881,342.863176822662,"0",0,4,1
10,8,2,0.747978925704956,10.0159139633179,344.879703998566,"0",2,6,1
10,8,1,0,10.0161209106445,344.879910945892,"Reward",0,0,1
10,20,1,0.986783981323242,1.99927186965942,356.92991900444,"0",1,0,1
10,20,1,0.547684907913208,4.015949010849,358.946595907211,"0",2,7,1
10,20,1,0.724840879440308,5.99933981895447,360.929986953735,"0",0,0,1
10,20,2,1.0000581741333,7.99940490722656,362.930051803589,"0",0,7,1
10,20,1,0.634221792221069,9.99959897994995,364.930245876312,"0",1,1,1
10,20,1,0,9.99985599517822,364.930500984192,"Reward",0,0,1
10,4,0,0.31926703453064,0.322664022445679,375.304267883301,"0",1,2,1
10,4,0,0,0.322801113128662,375.304404020309,"Quit",0,0,1
10,4,0,0.266024827957153,0.267878770828247,383.599354982376,"0",2,4,1
10,4,0,0,0.268078804016113,383.599555015564,"Quit",0,0,1
10,8,1,0.731683969497681,1.99913287162781,393.630522012711,"0",1,2,1
10,8,1,0.535194158554077,3.99942994117737,395.630819797516,"0",1,0,1
10,8,1,0.603538990020752,5.99907279014587,397.630461931229,"0",0,6,1
10,8,1,0.649322986602783,7.99923181533813,399.630620956421,"0",1,6,1
10,8,1,0.748456954956055,10.0162417888641,401.647630929947,"0",2,0,1
10,8,1,0,10.0164480209351,401.647835969925,"Reward",0,0,1
10,4,0,0.304920196533203,0.308142900466919,412.00700378418,"0",1,5,1
10,4,0,0,0.30827808380127,412.007138967514,"Quit",0,0,1
2,20,1,0.514470815658569,2.01544117927551,428.648089885712,"0",2,5,2
2,20,1,0,2.01565003395081,428.648297786713,"Reward",0,0,2
2,8,1,0.59850001335144,2.01576590538025,448.71498799324,"0",2,3,2
2,8,1,0,2.01681184768677,448.71603178978,"Reward",0,0,2
2,8,1,0.816792011260986,1.99951696395874,468.765378952026,"0",0,4,2
2,8,1,0,1.99978590011597,468.765646934509,"Reward",0,0,2
2,20,1,0.715662002563477,2.01611399650574,488.832541942596,"0",2,3,2
2,20,1,0,2.0171000957489,488.833526849747,"Reward",0,0,2
2,4,1,0.580802917480469,2.01589298248291,508.89944601059,"0",2,1,2
2,4,1,0,2.01690411567688,508.900455951691,"Reward",0,0,2
2,4,1,0.598055124282837,2.0160710811615,528.966514825821,"0",2,4,2
2,4,1,0,2.01628017425537,528.96672296524,"Reward",0,0,2
2,20,1,0.571030855178833,1.99895596504211,549.016482830048,"0",1,4,2
2,20,1,0,1.99997687339783,549.017501831055,"Reward",0,0,2
2,8,1,0.77413010597229,1.99952411651611,569.067021846771,"0",0,3,2
2,8,1,0,2.00056409835815,569.068061828613,"Reward",0,0,2
2,8,1,0.631314992904663,2.01553988456726,589.133805990219,"0",2,4,2
2,8,1,0,2.01574683189392,589.134011983871,"Reward",0,0,2
2,4,1,0.615331172943115,2.01602792739868,609.201219797134,"0",2,6,2
2,4,1,0,2.01701283454895,609.202203989029,"Reward",0,0,2
2,20,1,0.817086935043335,1.99952816963196,629.251484870911,"0",0,1,2
2,20,1,0,2.00053811073303,629.252493858337,"Reward",0,0,2
2,4,1,0.572939872741699,1.99915194511414,649.301755905151,"0",1,5,2
2,4,1,0,2.00053811073303,649.303139925003,"Reward",0,0,2
2,4,1,0.548649072647095,2.01590514183044,669.368770837784,"0",2,7,2
2,4,1,0,2.01696300506592,669.369826793671,"Reward",0,0,2
2,8,1,0.481945037841797,2.01630592346191,689.435964822769,"0",2,5,2
2,8,1,0,2.01761984825134,689.437277793884,"Reward",0,0,2
2,8,1,0.772448062896729,1.99925398826599,709.485939979553,"0",0,1,2
2,8,1,0,1.99945902824402,709.486143827438,"Reward",0,0,2
2,20,1,0.732630014419556,1.99914813041687,729.536482810974,"0",1,0,2
2,20,1,0,2.00019097328186,729.537524938583,"Reward",0,0,2
2,20,1,0.648171901702881,2.01587700843811,749.603435993195,"0",2,2,2
2,20,1,0,2.01694703102112,749.60450387001,"Reward",0,0,2
2,4,1,0.548645973205566,2.01662611961365,769.670931816101,"0",2,3,2
2,4,1,0,2.01684021949768,769.671144962311,"Reward",0,0,2
2,4,1,0.580790042877197,2.01564311981201,789.737285852432,"0",2,7,2
2,4,1,0,2.01662707328796,789.738268852234,"Reward",0,0,2
2,8,2,0.997111797332764,2.01605582237244,809.804692983627,"0",2,6,2
2,8,2,0,2.01702380180359,809.805660009384,"Forced travel",0,0,2
2,20,1,0.581923007965088,2.01574993133545,827.854547977448,"0",2,0,2
2,20,1,0,2.015958070755,827.854754924774,"Reward",0,0,2
14,8,1,0.692892074584961,1.99834513664246,854.004617929459,"0",0,7,3
14,8,1,0.875202894210815,3.99904704093933,856.005319833755,"0",0,2,3
14,8,1,0.687859058380127,5.9988420009613,858.00511598587,"0",1,7,3
14,8,1,0.848533153533936,8.01550912857056,860.021782875061,"0",2,7,3
14,8,1,0.9060378074646,9.99911212921143,862.005385875702,"0",0,5,3
14,8,1,0.588441848754883,11.9988961219788,864.005169868469,"0",1,7,3
14,8,1,0.748314142227173,13.9989559650421,866.005229949951,"0",0,3,3
14,8,1,0,14.0002751350403,866.006547927856,"Reward",0,0,3
14,20,1,0.536929845809937,1.9992949962616,874.055425882339,"0",1,4,3
14,20,1,0.875596046447754,3.99893403053284,876.055064916611,"0",0,2,3
14,20,1,0.918952941894531,5.99948787689209,878.055619955063,"0",0,2,3
14,20,1,0.76478099822998,8.01628994941711,880.072421789169,"0",2,2,3
14,20,1,0.70622992515564,9.99959182739258,882.055723905563,"0",1,0,3
14,20,1,0.630089998245239,12.0160918235779,884.072222948074,"0",2,4,3
14,20,1,0.734492063522339,13.9996829032898,886.055813789368,"0",0,6,3
14,20,1,0,13.9999430179596,886.056072950363,"Reward",0,0,3
14,4,0,0.233293056488037,0.25274395942688,892.359282016754,"0",0,4,3
14,4,0,0,0.252876996994019,892.359414815903,"Quit",0,0,3
14,20,1,0.710932016372681,1.99940299987793,898.389375925064,"0",0,5,3
14,20,1,0.797240018844604,4.01612496376038,900.406097888947,"0",2,3,3
14,20,1,0.614104032516479,6.01610112190247,902.40607380867,"0",2,2,3
14,20,1,0.68887996673584,7.99946618080139,904.389438867569,"0",1,2,3
14,20,1,0.515277862548828,9.99931311607361,906.389284849167,"0",1,5,3
14,20,1,0.690771102905273,11.9995381832123,908.38951086998,"0",0,6,3
14,20,1,0.609925031661987,13.9995901584625,910.38956284523,"0",1,1,3
14,20,1,0,13.9998710155487,910.389841794968,"Reward",0,0,3
14,4,0,0.266353130340576,0.268226146697998,916.708329916,"0",2,4,3
14,4,0,0,0.268417119979858,916.708520889282,"Quit",0,0,3
14,8,0,0.282693147659302,0.302085876464844,921.042302846909,"0",0,7,3
14,8,0,0,0.302226781845093,921.042443990707,"Quit",0,0,3
14,4,0,0.26598596572876,0.267709016799927,925.341700792313,"0",2,2,3
14,4,0,0,0.267904043197632,925.34189581871,"Quit",0,0,3
14,4,0,0.252178907394409,0.256540060043335,929.630493879318,"0",1,1,3
14,4,0,0,0.257210969924927,929.631163835526,"Quit",0,0,3
14,20,1,0.598062038421631,2.0160059928894,935.673126935959,"0",2,1,3
14,20,1,0.679989099502563,3.99933910369873,937.65645980835,"0",0,6,3
14,20,1,0.765147924423218,6.0163471698761,939.673468828201,"0",2,3,3
14,20,1,0.710677862167358,8.01597809791565,941.673098802567,"0",0,6,3
14,20,1,0.663810014724731,10.0163741111755,943.673496007919,"0",2,4,3
14,20,1,0.948137998580933,12.0163722038269,945.673492908478,"0",2,5,3
14,20,1,0.793792963027954,13.9995541572571,947.656674861908,"0",1,1,3
14,20,1,0,13.9997580051422,947.656877994537,"Reward",0,0,3
14,8,1,0.635868072509766,1.99928712844849,955.707075834274,"0",0,0,3
14,8,1,0.58629584312439,3.99924206733704,957.707031965256,"0",1,2,3
14,8,1,0.647266149520874,6.01604819297791,959.723836898804,"0",2,0,3
14,8,1,0.583345174789429,7.99935221672058,961.707141876221,"0",1,6,3
14,8,1,0.579891920089722,9.99913716316223,963.706925868988,"0",0,6,3
14,8,1,0.740365028381348,11.999480009079,965.707268953323,"0",0,0,3
14,8,1,0.651356935501099,13.9994511604309,967.707240819931,"0",1,5,3
14,8,1,0,13.999724149704,967.707511901855,"Reward",0,0,3
14,20,1,0.599605798721313,2.01628589630127,975.773813009262,"0",2,1,3
14,20,1,0.4776611328125,3.99964594841003,977.757171869278,"0",1,5,3
14,20,1,0.865767002105713,5.99991703033447,979.757442951202,"0",0,4,3
14,20,2,0.996800899505615,8.01662802696228,981.774154901505,"0",2,5,3
14,20,2,0.831773042678833,9.99995303153992,983.757480859756,"0",0,7,3
14,20,2,0,10.0002088546753,983.757733821869,"Forced travel",0,0,3
14,8,1,0.708731889724731,1.99893498420715,989.790709972382,"0",0,1,3
14,8,1,0.650516033172607,3.99897313117981,991.790747880936,"0",0,6,3
14,8,1,0.680853128433228,6.01600098609924,993.807775974274,"0",2,6,3
14,8,1,0.74497389793396,7.9992311000824,995.791006803513,"0",0,3,3
14,8,1,0.681586980819702,10.01589012146,997.807664871216,"0",2,6,3
14,8,1,0.488859891891479,11.9989459514618,999.790719985962,"0",1,7,3
14,8,1,0.591255903244019,13.9993360042572,1001.79111194611,"0",0,6,3
14,8,1,0,13.9995939731598,1001.79136800766,"Reward",0,0,3
14,20,1,0.698018074035645,1.9993269443512,1009.84107685089,"0",1,2,3
14,20,1,0.634558916091919,3.99935078620911,1011.84110093117,"0",1,0,3
14,20,1,0.532236099243164,6.01554894447327,1013.85729789734,"0",2,7,3
14,20,1,0.548602819442749,8.01612186431885,1015.85787200928,"0",2,4,3
14,20,1,0.663050889968872,10.0163149833679,1017.85806584358,"0",2,4,3
14,20,1,0.637585163116455,11.9996709823608,1019.84142184258,"0",0,6,3
14,20,1,0.768266916275024,13.999449968338,1021.84119987488,"0",0,7,3
14,20,1,0,13.999655008316,1021.84140300751,"Reward",0,0,3
14,4,0,0.215769052505493,0.235292911529541,1028.12746286392,"0",0,4,3
14,4,0,0,0.235432863235474,1028.12760400772,"Quit",0,0,3
14,8,0,0.234415054321289,0.25370717048645,1032.41203093529,"0",0,6,3
14,8,0,0,0.253847122192383,1032.41216993332,"Quit",0,0,3
14,4,0,0.429102897644043,0.434756994247437,1036.87707781792,"0",1,7,3
14,4,0,0,0.434900999069214,1036.87722182274,"Quit",0,0,3
14,8,0,0.363445043563843,0.366855144500732,1041.27621388435,"0",1,2,3
14,8,0,0,0.366994142532349,1041.27635192871,"Quit",0,0,3
14,20,1,0.515798091888428,2.01643800735474,1047.3250169754,"0",2,7,3
14,20,1,0.525446891784668,3.99985504150391,1049.30843400955,"0",1,5,3
14,20,1,0.690346956253052,5.99972414970398,1051.30830383301,"0",0,1,3
14,20,1,0.649064064025879,8.016606092453,1053.32518482208,"0",2,2,3
14,20,2,0.855938196182251,10.0001389980316,1055.30871891975,"0",0,2,3
14,20,1,0.66506814956665,12.0168690681458,1057.32544779778,"0",2,7,3
14,20,2,0.751481056213379,14.0002281665802,1059.30880594254,"0",0,7,3
14,20,2,0,14.0004281997681,1059.30900597572,"Forced travel",0,0,3
14,8,1,0.671216011047363,1.99923706054688,1065.34225797653,"0",0,3,3
14,8,1,0.658453941345215,3.99930715560913,1067.3423268795,"0",0,6,3
14,8,1,0.571976184844971,5.99927401542664,1069.34229493141,"0",0,3,3
14,8,1,0.744206190109253,7.99922704696655,1071.34224700928,"0",1,3,3
14,8,1,0.559180974960327,9.99917602539062,1073.3421959877,"0",1,4,3
14,8,1,0.593541860580444,11.9992690086365,1075.34228897095,"0",1,2,3
14,8,1,0.585048913955688,13.9990651607513,1077.34208583832,"0",0,3,3
14,8,1,0,13.9993290901184,1077.34234786034,"Reward",0,0,3
14,4,0,0.275572061538696,0.29479193687439,1083.68816399574,"0",0,7,3
14,4,0,0,0.295462131500244,1083.68883395195,"Quit",0,0,3
14,20,1,0.631561040878296,2.0159809589386,1089.74275994301,"0",2,2,3
14,20,1,0.91377592086792,3.99913597106934,1091.72591495514,"0",0,1,3
14,20,1,0.730361938476562,5.99931311607361,1093.7260928154,"0",0,3,3
14,20,1,0.636967182159424,7.99933314323425,1095.72611188889,"0",0,0,3
14,20,1,0.580513000488281,10.0160369873047,1097.74281692505,"0",2,2,3
14,20,1,0.634550094604492,11.9992599487305,1099.72603797913,"0",0,0,3
14,20,1,0.49291205406189,13.9991061687469,1101.7258849144,"0",1,5,3
14,20,1,0,13.9993121623993,1101.72608995438,"Reward",0,0,3
14,4,0,0.238603830337524,0.257751941680908,1108.03471088409,"0",0,0,3
14,4,0,0,0.257885932922363,1108.03484582901,"Quit",0,0,3
14,20,1,0.615229845046997,2.01613402366638,1114.07648682594,"0",2,0,3
14,20,1,0.572265148162842,3.99949502944946,1116.0598487854,"0",1,0,3
14,20,1,0.547292947769165,5.99946188926697,1118.05981588364,"0",0,3,3
14,20,1,0.548391103744507,8.01597595214844,1120.07632899284,"0",2,7,3
14,20,1,0.547024965286255,10.0162539482117,1122.07660794258,"0",2,1,3
14,20,1,0.532622098922729,11.9996120929718,1124.05996489525,"0",1,0,3
14,20,1,0.676275014877319,13.9994690418243,1126.05982089043,"0",1,6,3
14,20,1,0,13.9996769428253,1126.06002879143,"Reward",0,0,3
14,8,0,0.241075992584229,0.260304927825928,1132.37123680115,"0",0,2,3
14,8,0,0,0.260439872741699,1132.37137079239,"Quit",0,0,3
14,20,1,0.591984987258911,1.99897003173828,1138.41001987457,"0",1,0,3
14,20,1,0.596918106079102,4.0158748626709,1140.42692494392,"0",2,2,3
14,20,1,0.591817855834961,5.99907398223877,1142.41012382507,"0",0,7,3
14,20,1,0.647800922393799,8.01600289344788,1144.4270529747,"0",2,7,3
14,20,1,0.703409910202026,9.99904894828796,1146.41009879112,"0",0,1,3
14,20,1,0.643259048461914,11.9991049766541,1148.41015481949,"0",0,1,3
14,20,2,1.00006794929504,13.9993689060211,1150.41041994095,"0",0,7,3
14,20,1,0,13.9996309280396,1150.4106798172,"Reward",0,0,3
14,4,0,0.282874822616577,0.284631967544556,1156.74599289894,"0",2,5,3
14,4,0,0,0.284826993942261,1156.74618792534,"Quit",0,0,3
14,20,1,0.599301815032959,2.01581192016602,1162.7939248085,"0",2,1,3
14,20,1,0.601047992706299,3.99904584884644,1164.7771589756,"0",0,6,3
14,20,1,0.465491056442261,5.99863195419312,1166.77674484253,"0",0,6,3
14,20,2,0.769409894943237,7.99931693077087,1168.77742981911,"0",0,5,3
14,20,1,0.710397005081177,9.99940991401672,1170.77752280235,"0",0,1,3
14,20,1,0.547178983688354,12.0160799026489,1172.79419279099,"0",2,4,3
14,20,1,0.655472040176392,13.9994599819183,1174.77757287025,"0",1,6,3
14,20,1,0,14.0007870197296,1174.77889895439,"Reward",0,0,3
14,4,0,0.282382011413574,0.285794019699097,1181.11412191391,"0",1,2,3
14,4,0,0,0.285928964614868,1181.11425590515,"Quit",0,0,3
14,8,1,0.583693027496338,1.99939203262329,1187.14441084862,"0",1,7,3
14,8,1,0.85512900352478,3.99898195266724,1189.14399981499,"0",0,2,3
14,8,1,0.586486101150513,5.99920797348022,1191.14422678947,"0",1,0,3
14,8,1,0.515021085739136,8.01578593254089,1193.16080379486,"0",2,7,3
14,8,1,0.536586999893188,9.99928092956543,1195.14429783821,"0",0,3,3
14,8,1,0.492385149002075,11.9996099472046,1197.14462780952,"0",0,6,3
14,8,2,0.822323083877563,13.999577999115,1199.14459681511,"0",0,4,3
14,8,1,0,14.0006039142609,1199.14562082291,"Reward",0,0,3
14,8,0,0.283154964447021,0.285008907318115,1205.48034000397,"0",2,7,3
14,8,0,0,0.28520393371582,1205.4805328846,"Quit",0,0,3
14,4,0,0.2653489112854,0.267071962356567,1209.77943181992,"0",2,2,3
14,4,0,0,0.268388986587524,1209.78074884415,"Quit",0,0,3
14,8,0,0.42419695854187,0.44340991973877,1214.25560283661,"0",0,7,3
14,8,0,0,0.443544864654541,1214.25573682785,"Quit",0,0,3
14,20,1,0.465054035186768,1.99947714805603,1220.29488992691,"0",1,7,3
14,20,1,0.821195840835571,3.99960994720459,1222.29502391815,"0",0,1,3
14,20,1,0.605769157409668,5.9995710849762,1224.29498386383,"0",1,4,3
14,20,1,0.619536161422729,7.99945497512817,1226.2948679924,"0",1,5,3
14,20,1,0.598420143127441,10.0164649486542,1228.31187796593,"0",2,3,3
14,20,1,0.478353977203369,11.9995770454407,1230.29499101639,"0",1,4,3
14,20,1,0.475197076797485,13.9996719360352,1232.29508495331,"0",1,7,3
14,20,1,0,13.9998800754547,1232.29529190063,"Reward",0,0,3
14,20,1,0.541343927383423,1.99909591674805,1240.34509396553,"0",1,4,3
14,20,1,0.560858011245728,3.99928307533264,1242.3452808857,"0",1,0,3
14,20,1,0.808098077774048,5.99935698509216,1244.34535479546,"0",0,2,3
14,20,1,0.669530153274536,7.99942493438721,1246.34542393684,"0",0,3,3
14,20,1,0.554744958877563,9.99918794631958,1248.3451859951,"0",1,5,3
14,20,1,0.711951971054077,11.9992640018463,1250.34526085854,"0",0,1,3
14,20,1,0.594184160232544,13.999596118927,1252.34559392929,"0",0,1,3
14,20,1,0,13.9998021125793,1252.34579896927,"Reward",0,0,3
14,4,0,0.271900177001953,0.292655944824219,1258.68916082382,"0",0,2,3
14,4,0,0,0.293379068374634,1258.68988394737,"Quit",0,0,3
14,8,0,0.252751111984253,0.272060871124268,1263.00169181824,"0",0,1,3
14,8,0,0,0.273307800292969,1263.00293898582,"Quit",0,0,3
10,20,1,0.729583024978638,1.99933695793152,1308.22946500778,"0",1,0,4
10,20,1,0.541093826293945,3.99960207939148,1310.2297308445,"0",1,4,4
10,20,1,0.512392997741699,5.9995219707489,1312.2296500206,"0",1,3,4
10,20,1,0.78527307510376,7.99957609176636,1314.22970485687,"0",0,5,4
10,20,1,0.660501956939697,9.99960589408875,1316.22973394394,"0",1,6,4
10,20,1,0,9.99980998039246,1316.22993683815,"Reward",0,0,4
10,20,1,0.795928955078125,1.99945783615112,1328.28020191193,"0",0,4,4
10,20,1,0.685240983963013,3.99921703338623,1330.27995991707,"0",0,7,4
10,20,1,0.547733068466187,6.01558804512024,1332.2963309288,"0",2,6,4
10,20,1,0.617406845092773,7.99946904182434,1334.28021287918,"0",0,6,4
10,20,1,0.637955904006958,9.99962091445923,1336.28036379814,"0",0,1,4
10,20,1,0,9.99982380867004,1336.2805659771,"Reward",0,0,4
10,8,1,0.929903030395508,1.99947500228882,1348.33055901527,"0",0,4,4
10,8,1,0.570374965667725,3.99861311912537,1350.32969689369,"0",0,6,4
10,8,1,0.524613857269287,5.99927806854248,1352.33036184311,"0",1,4,4
10,8,1,0.53199291229248,8.01595902442932,1354.34704399109,"0",2,4,4
10,8,1,0.50397801399231,9.99954414367676,1356.33062887192,"0",0,0,4
10,8,1,0,9.99980592727661,1356.33088898659,"Reward",0,0,4
10,8,1,0.798582077026367,2.01569509506226,1368.39742183685,"0",2,3,4
10,8,1,0.592797994613647,3.99891209602356,1370.38063883781,"0",1,5,4
10,8,1,0.665401935577393,6.0156421661377,1372.39736795425,"0",2,6,4
10,8,1,0.593780040740967,7.9991569519043,1374.38088488579,"0",0,5,4
10,8,1,0.612324953079224,9.99920415878296,1376.38093185425,"0",0,1,4
10,8,1,0,9.99946713447571,1376.38119292259,"Reward",0,0,4
10,4,0,0.281768083572388,0.283621072769165,1386.71533989906,"0",2,4,4
10,4,0,0,0.284570932388306,1386.7162899971,"Quit",0,0,4
10,4,0,0.0122900009155273,0.0323069095611572,1394.78088784218,"0",0,5,4
10,4,0,0,0.0336198806762695,1394.78219985962,"Quit",0,0,4
10,20,1,0.56516695022583,2.01589798927307,1404.83148384094,"0",2,2,4
10,20,1,0.507077932357788,3.9992299079895,1406.81481695175,"0",1,3,4
10,20,1,0.65946888923645,5.99897384643555,1408.81455993652,"0",0,4,4
10,20,1,0.569057941436768,7.99916195869446,1410.81474781036,"0",1,6,4
10,20,1,0.581161022186279,9.99938797950745,1412.81497478485,"0",1,2,4
10,20,1,0,9.9996919631958,1412.81527686119,"Reward",0,0,4
10,8,1,0.548785924911499,2.01613903045654,1424.88189983368,"0",2,6,4
10,8,1,0.631709098815918,4.01616406440735,1426.88192391396,"0",2,1,4
10,8,1,0.619029998779297,5.99925494194031,1428.86501598358,"0",0,4,4
10,8,1,0.579465866088867,7.99949312210083,1430.86525392532,"0",1,5,4
10,8,1,0.927156209945679,9.99927091598511,1432.86503100395,"0",0,2,4
10,8,1,0,10.0006060600281,1432.86636590958,"Reward",0,0,4
10,20,1,0.591485977172852,1.99959301948547,1444.91539382935,"0",0,7,4
10,20,1,0.577597141265869,3.99969887733459,1446.91549897194,"0",1,6,4
10,20,1,0.598023891448975,6.01621699333191,1448.93201684952,"0",2,3,4
10,20,1,0.578131198883057,7.99958992004395,1450.91539001465,"0",0,3,4
10,20,1,0.497302055358887,10.0158479213715,1452.93164801598,"0",2,4,4
10,20,1,0,10.0171618461609,1452.93296098709,"Reward",0,0,4
10,8,1,0.588070869445801,1.99917316436768,1464.98227286339,"0",1,7,4
10,8,1,0.602473020553589,3.99939608573914,1466.98249697685,"0",0,7,4
10,8,1,0.617538928985596,5.99955606460571,1468.98265600204,"0",0,1,4
10,8,1,0.525816917419434,7.9995231628418,1470.98262500763,"0",1,2,4
10,8,1,0.711012840270996,9.99931120872498,1472.98241090775,"0",0,2,4
10,8,1,0,9.99951815605164,1472.9826169014,"Reward",0,0,4
10,4,0,0.415688991546631,0.417423009872437,1483.45114994049,"0",2,6,4
10,4,0,0,0.41762900352478,1483.45135593414,"Quit",0,0,4
10,4,0,0.248929977416992,0.250782012939453,1491.734333992,"0",2,2,4
10,4,0,0,0.250975131988525,1491.73452687263,"Quit",0,0,4
10,20,1,0.673877954483032,1.9992790222168,1502.33291387558,"0",0,2,4
10,20,1,0.614126920700073,4.01600384712219,1504.3496389389,"0",2,0,4
10,20,1,0.497923851013184,6.01549983024597,1506.34913396835,"0",2,1,4
10,20,1,0.514033079147339,8.01598596572876,1508.34961986542,"0",2,3,4
10,20,1,0.734831809997559,9.99945688247681,1510.33309197426,"0",0,2,4
10,20,1,0,9.99971795082092,1510.33335089684,"Reward",0,0,4
10,20,1,0.499146938323975,2.01591205596924,1522.39971399307,"0",2,5,4
10,20,1,0.547652006149292,4.01627397537231,1524.4000749588,"0",2,7,4
10,20,1,0.58237099647522,5.99953198432922,1526.38333392143,"0",1,7,4
10,20,1,0.648267030715942,8.01628303527832,1528.40008497238,"0",2,1,4
10,20,1,0.722551107406616,9.9996030330658,1530.38340401649,"0",0,2,4
10,20,1,0,10.0006160736084,1530.38441586494,"Reward",0,0,4
10,8,1,0.628362894058228,1.99902391433716,1542.4334359169,"0",0,4,4
10,8,1,0.698117971420288,4.01599597930908,1544.45040678978,"0",2,1,4
10,8,1,0.635043144226074,5.9993839263916,1546.43379497528,"0",1,1,4
10,8,1,0.529260873794556,7.99912095069885,1548.43353199959,"0",1,1,4
10,8,1,0.631251811981201,10.0155200958252,1550.4499309063,"0",2,1,4
10,8,1,0,10.0157248973846,1550.4501349926,"Reward",0,0,4
10,4,0,0.269742965698242,0.289254903793335,1560.7904188633,"0",0,5,4
10,4,0,0,0.289391994476318,1560.79055595398,"Quit",0,0,4
10,8,1,0.720685958862305,1.99889802932739,1570.81724691391,"0",0,0,4
10,8,1,0.531243085861206,4.01584196090698,1572.83419179916,"0",2,4,4
10,8,1,0.66385293006897,6.01592898368835,1574.83427786827,"0",2,3,4
10,8,1,0.607177019119263,7.99926900863647,1576.81761789322,"0",0,4,4
10,8,1,0.681527853012085,10.0159380435944,1578.83428788185,"0",2,5,4
10,8,1,0,10.0161988735199,1578.83454585075,"Reward",0,0,4
10,4,0,0.257009983062744,0.259871959686279,1589.14520192146,"0",1,0,4
10,4,0,0,0.260005950927734,1589.14533686638,"Quit",0,0,4
10,4,0,0.280858039855957,0.300279140472412,1597.48581695557,"0",0,7,4
10,4,0,0,0.300964117050171,1597.48650193214,"Quit",0,0,4
10,8,1,0.634871006011963,1.99928188323975,1607.51814198494,"0",0,2,4
10,8,1,0.543062925338745,3.9990758895874,1609.51793479919,"0",0,6,4
10,8,1,0.581973075866699,6.0159637928009,1611.5348238945,"0",2,3,4
10,8,1,0.506716966629028,7.99914193153381,1613.51800084114,"0",0,6,4
10,8,1,0.603276014328003,9.99947500228882,1615.51833486557,"0",0,4,4
10,8,1,0,10.0007939338684,1615.5196518898,"Reward",0,0,4
10,4,0,0.305562973022461,0.309474945068359,1625.87885189056,"0",1,2,4
10,4,0,0,0.31016993522644,1625.8795478344,"Quit",0,0,4
10,8,1,0.585077047348022,1.99909400939941,1635.91837382317,"0",1,2,4
10,8,1,0.615197896957397,4.01566696166992,1637.93494701385,"0",2,3,4
10,8,1,0.514232158660889,6.01609396934509,1639.9353749752,"0",2,3,4
10,8,1,0.639363050460815,7.99942803382874,1641.91870880127,"0",0,1,4
10,8,1,0.731356143951416,10.015820980072,1643.93510198593,"0",2,2,4
10,8,1,0,10.01602602005,1643.93530583382,"Reward",0,0,4
10,20,1,0.647561073303223,1.99959087371826,1655.98577094078,"0",0,7,4
10,20,1,0.579642057418823,4.03286194801331,1658.01904201508,"0",2,3,4
10,20,1,0.531276226043701,6.0159649848938,1660.00214481354,"0",2,5,4
10,20,1,0.85753607749939,7.9995288848877,1661.98570895195,"0",0,4,4
10,20,1,0.640579223632812,9.99937200546265,1663.98555183411,"0",1,1,4
10,20,1,0,10.0006930828094,1663.98687195778,"Reward",0,0,4
10,20,1,0.608690023422241,1.99944996833801,1676.03605699539,"0",0,1,4
10,20,1,0.577509164810181,3.9994490146637,1678.03605794907,"0",1,2,4
10,20,1,0.616173982620239,5.99944806098938,1680.0360558033,"0",0,5,4
10,20,1,0.561201095581055,7.9988911151886,1682.03549790382,"0",0,0,4
10,20,2,0.78222393989563,10.0161790847778,1684.05278587341,"0",2,6,4
10,20,1,0,10.0164389610291,1684.05304479599,"Reward",0,0,4
10,20,1,0.489958047866821,1.99933099746704,1696.1029419899,"0",1,7,4
10,20,1,0.605777978897095,3.99954199790955,1698.10315179825,"0",0,6,4
10,20,1,0.630699872970581,6.01623702049255,1700.11984801292,"0",2,1,4
10,20,1,0.551068067550659,7.99921011924744,1702.10282087326,"0",0,1,4
10,20,1,0.748440980911255,10.0162379741669,1704.1198489666,"0",2,3,4
10,20,1,0,10.0176119804382,1704.1212220192,"Reward",0,0,4
10,8,1,0.716131210327148,2.00068998336792,1716.17014479637,"0",2,1,4
10,8,1,0.596853971481323,4.00058007240295,1718.17003798485,"0",2,7,4
10,8,1,0.631585836410522,6.000657081604,1720.17011284828,"0",2,2,4
10,8,1,0.561490058898926,8.0007050037384,1722.17016100883,"0",1,3,4
10,8,1,0.698637008666992,10.0005080699921,1724.16996383667,"0",0,4,4
10,8,1,0,10.0007700920105,1724.17022490501,"Reward",0,0,4
2,8,1,0.682221174240112,2.01588702201843,1742.25338101387,"0",2,2,5
2,8,1,0,2.01690816879272,1742.25440192223,"Reward",0,0,5
2,20,1,0.598939895629883,1.99899411201477,1762.30394887924,"0",0,7,5
2,20,1,0,2.00031113624573,1762.3052649498,"Reward",0,0,5
2,4,1,0.566476106643677,1.99902391433716,1782.35433101654,"0",0,7,5
2,4,1,0,2.00002598762512,1782.35533189774,"Reward",0,0,5
2,4,1,0.582284212112427,2.01589202880859,1802.42159485817,"0",2,1,5
2,4,1,0,2.01688814163208,1802.42259097099,"Reward",0,0,5
2,8,1,0.667336940765381,1.99904298782349,1822.4718978405,"0",0,4,5
2,8,1,0,1.99925088882446,1822.47210478783,"Reward",0,0,5
2,20,1,0.697670936584473,2.01595282554626,1842.53908896446,"0",2,7,5
2,20,1,0,2.01695585250854,1842.54009079933,"Reward",0,0,5
2,4,1,0.567288160324097,1.99911689758301,1862.58904290199,"0",1,3,5
2,4,1,0,2.00011801719666,1862.59004187584,"Reward",0,0,5
2,8,1,0.57531213760376,1.99915909767151,1882.63966798782,"0",0,0,5
2,8,1,0,1.99942111968994,1882.63992786407,"Reward",0,0,5
2,4,1,0.678190946578979,1.99895191192627,1902.68977499008,"0",1,2,5
2,4,1,0,1.99995899200439,1902.69078183174,"Reward",0,0,5
2,20,1,0.603309869766235,1.99938702583313,1922.74032402039,"0",1,7,5
2,20,1,0,2.00044298171997,1922.74137783051,"Reward",0,0,5
2,8,1,0.647104978561401,2.0152428150177,1942.80680894852,"0",2,3,5
2,8,1,0,2.01545190811157,1942.80701684952,"Reward",0,0,5
2,20,1,0.56296706199646,1.99944305419922,1962.87448191643,"0",1,7,5
2,20,1,0,1.99965286254883,1962.87469100952,"Reward",0,0,5
2,8,1,0.680314064025879,2.01616096496582,1982.94140696526,"0",2,0,5
2,8,1,0,2.01725006103516,1982.94249391556,"Reward",0,0,5
2,8,1,0.694983005523682,1.99922108650208,2002.99178385735,"0",0,5,5
2,8,1,0,1.99948310852051,2002.99204397202,"Reward",0,0,5
2,20,1,0.547011137008667,1.99874019622803,2023.04179692268,"0",0,6,5
2,20,1,0,1.99971199035645,2023.04276800156,"Reward",0,0,5
2,4,1,0.591238021850586,1.99885511398315,2043.09219288826,"0",1,7,5
2,4,1,0,1.99907803535461,2043.09241580963,"Reward",0,0,5
2,20,1,0.615861892700195,2.01583099365234,2063.15921497345,"0",2,1,5
2,20,1,0,2.01716208457947,2063.16054487228,"Reward",0,0,5
2,4,1,0.701655149459839,1.99965214729309,2083.20981884003,"0",1,6,5
2,4,1,0,2.00070595741272,2083.21087098122,"Reward",0,0,5
2,4,1,0.533745050430298,1.99934697151184,2103.26024079323,"0",1,7,5
2,4,1,0,2.00033688545227,2103.26122999191,"Reward",0,0,5
2,8,1,0.589483022689819,1.99917387962341,2123.31052088737,"0",1,5,5
2,8,1,0,2.00055289268494,2123.31189799309,"Reward",0,0,5
2,20,1,0.645236015319824,1.99902701377869,2143.36079382896,"0",1,1,5
2,20,1,0,1.99929285049438,2143.36105799675,"Reward",0,0,5
14,4,0,0.280179977416992,0.283499956130981,2167.76158094406,"0",1,5,6
14,4,0,0,0.283635854721069,2167.76171779633,"Quit",0,0,6
14,8,0,0.247174978256226,0.251613855361938,2172.04697799683,"0",1,1,6
14,8,0,0,0.251765012741089,2172.04712891579,"Quit",0,0,6
14,20,1,0.731503009796143,2.01616287231445,2178.09493899345,"0",2,7,6
14,20,1,0.552812099456787,3.99946904182434,2180.07824492455,"0",1,3,6
14,20,1,0.549276113510132,5.99967193603516,2182.07844901085,"0",1,7,6
14,20,1,0.490437984466553,7.99947094917297,2184.07824778557,"0",1,5,6
14,20,1,0.597896814346313,10.0159959793091,2186.09477186203,"0",2,4,6
14,20,1,0.536983013153076,11.9996390342712,2188.07841491699,"0",1,4,6
14,20,1,0.748209953308105,14.0160229206085,2190.09479880333,"0",2,4,6
14,20,1,0,14.0170450210571,2190.0958199501,"Reward",0,0,6
14,8,0,0.304953098297119,0.324462890625,2196.47027683258,"0",0,3,6
14,8,0,0,0.324599027633667,2196.47041296959,"Quit",0,0,6
14,4,0,0.163879156112671,0.183272123336792,2200.67921090126,"0",0,4,6
14,4,0,0,0.183410167694092,2200.67934894562,"Quit",0,0,6
14,20,1,0.545408964157104,1.99885511398315,2206.71164488792,"0",0,2,6
14,20,1,0.646322011947632,3.99865913391113,2208.71144890785,"0",0,5,6
14,20,2,0.997438907623291,6.01570510864258,2210.72849488258,"0",2,3,6
14,20,1,0.60558009147644,7.99933910369873,2212.71212983131,"0",0,7,6
14,20,1,0.636955976486206,9.99916005134583,2214.71194982529,"0",1,6,6
14,20,1,0.666903018951416,11.9989359378815,2216.71172595024,"0",0,5,6
14,20,1,0.59831690788269,14.0160820484161,2218.72887182236,"0",2,6,6
14,20,1,0,14.0163431167603,2218.72913193703,"Reward",0,0,6
14,20,1,0.615046977996826,1.99953603744507,2226.77902197838,"0",0,6,6
14,20,1,0.580986976623535,3.99954414367676,2228.77902889252,"0",1,2,6
14,20,1,0.631417036056519,6.01629495620728,2230.79578089714,"0",2,2,6
14,20,1,0.497783899307251,7.99942708015442,2232.77891182899,"0",1,0,6
14,20,1,0.470749139785767,9.99966907501221,2234.77915501595,"0",0,7,6
14,20,1,0.547869920730591,12.0161581039429,2236.79564285278,"0",2,6,6
14,20,1,0.54301381111145,13.9995319843292,2238.77901697159,"0",1,0,6
14,20,1,0,13.9997420310974,2238.77922582626,"Reward",0,0,6
14,8,0,0.222184896469116,0.241837978363037,2245.07202887535,"0",0,4,6
14,8,0,0,0.241983890533447,2245.07217383385,"Quit",0,0,6
14,4,0,0.231477975845337,0.233330011367798,2249.34680891037,"0",2,5,6
14,4,0,0,0.235357046127319,2249.34883594513,"Quit",0,0,6
14,20,1,0.582165956497192,2.01611495018005,2255.39622879028,"0",2,2,6
14,20,1,0.554250955581665,3.99940180778503,2257.37951588631,"0",1,6,6
14,20,1,0.611319065093994,5.99950003623962,2259.37961387634,"0",0,5,6
14,20,1,0.596946001052856,7.99929285049438,2261.37940597534,"0",1,2,6
14,20,1,0.536283016204834,9.9996178150177,2263.37973189354,"0",0,0,6
14,20,1,0.498880863189697,11.9996008872986,2265.37971401215,"0",1,5,6
14,20,1,0.476685047149658,13.9994149208069,2267.37952685356,"0",1,7,6
14,20,1,0,13.9996190071106,2267.37973093987,"Reward",0,0,6
14,8,0,0.292817115783691,0.295720100402832,2273.74307990074,"0",1,0,6
14,8,0,0,0.295860052108765,2273.74321985245,"Quit",0,0,6
14,4,0,0.241037845611572,0.245498895645142,2278.02582001686,"0",1,1,6
14,4,0,0,0.245641946792603,2278.02596282959,"Quit",0,0,6
14,8,0,0.282726049423218,0.285902976989746,2282.35004591942,"0",1,3,6
14,8,0,0,0.287731885910034,2282.35187482834,"Quit",0,0,6
14,8,0,0.232365131378174,0.234097957611084,2286.61503982544,"0",2,3,6
14,8,0,0,0.234292984008789,2286.61523485184,"Quit",0,0,6
14,4,0,0.19920802116394,0.200952053070068,2290.8485918045,"0",2,2,6
14,4,0,0,0.201146125793457,2290.84878492355,"Quit",0,0,6
14,20,1,0.497786998748779,1.99920606613159,2296.88024997711,"0",1,3,6
14,20,1,0.586601972579956,3.99905300140381,2298.88009595871,"0",0,1,6
14,20,1,0.53215217590332,5.99922919273376,2300.8802728653,"0",1,2,6
14,20,1,0.59788990020752,8.01577019691467,2302.8968129158,"0",2,3,6
14,20,1,0.488075971603394,9.99916005134583,2304.88020300865,"0",1,4,6
14,20,1,0.57006311416626,11.9988131523132,2306.87985491753,"0",0,5,6
14,20,1,0.765493869781494,14.016056060791,2308.89709997177,"0",2,2,6
14,20,1,0,14.016321182251,2308.89736294746,"Reward",0,0,6
14,20,1,0.629096984863281,1.99916815757751,2316.94727182388,"0",0,2,6
14,20,1,0.61257791519165,4.01564311981201,2318.96374487877,"0",2,1,6
14,20,1,0.540381908416748,5.9991991519928,2320.9473028183,"0",0,7,6
14,20,1,0.57525110244751,7.99930620193481,2322.94740986824,"0",0,6,6
14,20,1,0.647983074188232,10.0160541534424,2324.96415686607,"0",2,1,6
14,20,1,0.546900987625122,12.0160300731659,2326.9641327858,"0",2,2,6
14,20,1,0.524593114852905,13.9993832111359,2328.94748687744,"0",0,3,6
14,20,1,0,14.0007481575012,2328.94884991646,"Reward",0,0,6
14,4,0,0.267806053161621,0.287035942077637,2335.28546881676,"0",0,0,6
14,4,0,0,0.28717303276062,2335.28560495377,"Quit",0,0,6
14,4,0,0.548753023147583,0.550458908081055,2339.86629390717,"0",2,3,6
14,4,0,0,0.551452875137329,2339.8672888279,"Quit",0,0,6
14,20,1,0.656355857849121,1.99954605102539,2345.89780282974,"0",1,0,6
14,20,1,0.562516927719116,3.9995698928833,2347.89782691002,"0",1,6,6
14,20,1,0.525901079177856,5.99933195114136,2349.8975880146,"0",1,4,6
14,20,1,0.529533863067627,7.99966788291931,2351.89792490005,"0",0,2,6
14,20,1,0.54386305809021,9.99969792366028,2353.8979549408,"0",1,0,6
14,20,1,0.585833072662354,11.9997079372406,2355.89796495438,"0",0,2,6
14,20,1,0.563988924026489,14.0164098739624,2357.9146668911,"0",2,3,6
14,20,1,0,14.0166718959808,2357.91492700577,"Reward",0,0,6
14,20,1,0.570233821868896,1.99906086921692,2365.96460795403,"0",0,6,6
14,20,1,0.581102848052979,4.01574897766113,2367.98129487038,"0",2,5,6
14,20,1,0.547585964202881,6.01605486869812,2369.98160195351,"0",2,7,6
14,20,1,0.520303010940552,7.99915599822998,2371.96470189095,"0",0,2,6
14,20,1,0.548069953918457,10.0160918235779,2373.98163795471,"0",2,1,6
14,20,1,0.530372858047485,12.0162258148193,2375.98177194595,"0",2,1,6
14,20,1,0.415297031402588,13.9995548725128,2377.96510100365,"0",1,4,6
14,20,1,0,13.9997608661652,2377.96530580521,"Reward",0,0,6
14,4,0,0.313520193099976,0.318869113922119,2384.33479094505,"0",1,7,6
14,4,0,0,0.319003105163574,2384.33492493629,"Quit",0,0,6
14,8,0,0.449306964874268,0.451058149337769,2388.81693196297,"0",2,5,6
14,8,0,0,0.451256036758423,2388.81713080406,"Quit",0,0,6
14,8,0,0.264932870864868,0.266695976257324,2393.11624884605,"0",2,2,6
14,8,0,0,0.266889095306396,2393.1164419651,"Quit",0,0,6
14,20,1,0.599303007125854,1.99903416633606,2399.14833188057,"0",0,7,6
14,20,1,0.515266895294189,4.01595520973206,2401.16525292397,"0",2,1,6
14,20,1,0.376667976379395,5.99929308891296,2403.14859080315,"0",1,4,6
14,20,1,0.491550207138062,7.99935507774353,2405.1486518383,"0",0,3,6
14,20,1,0.596209049224854,9.99959897994995,2407.1488969326,"0",1,6,6
14,20,1,0.680200815200806,12.0160281658173,2409.16532683372,"0",2,3,6
14,20,1,0.528892040252686,13.9990870952606,2411.14838480949,"0",1,6,6
14,20,1,0,13.9992949962616,2411.14859199524,"Reward",0,0,6
14,4,0,0.264999151229858,0.269457101821899,2417.46910095215,"0",1,1,6
14,4,0,0,0.269593954086304,2417.46923685074,"Quit",0,0,6
14,20,1,0.498003959655762,2.01577305793762,2423.51576185226,"0",2,6,6
14,20,1,0.497895956039429,4.01603412628174,2425.51602292061,"0",2,5,6
14,20,1,0.470712900161743,5.99929308891296,2427.49928188324,"0",1,3,6
14,20,1,0.718060970306396,7.999263048172,2429.49925279617,"0",0,4,6
14,20,1,0.535027980804443,9.99906492233276,2431.49905490875,"0",1,6,6
14,20,1,0.71429705619812,12.015123128891,2433.51511192322,"0",2,0,6
14,20,1,0.495516061782837,13.9992470741272,2435.49923586845,"0",1,3,6
14,20,1,0,14.0005629062653,2435.50055098534,"Reward",0,0,6
14,4,0,0.466703176498413,0.468693017959595,2442.01852893829,"0",2,2,6
14,4,0,0,0.468883037567139,2442.0187189579,"Quit",0,0,6
14,8,0,0.222208976745605,0.225653171539307,2446.27599191666,"0",1,2,6
14,8,0,0,0.225804090499878,2446.27614188194,"Quit",0,0,6
14,8,0,0.0750651359558105,0.0947060585021973,2450.41184186935,"0",0,7,6
14,8,0,0,0.0948400497436523,2450.4119758606,"Quit",0,0,6
14,4,0,0.253335952758789,0.272493124008179,2454.72299194336,"0",0,1,6
14,4,0,0,0.272632122039795,2454.72312998772,"Quit",0,0,6
14,20,1,0.598811864852905,2.01637411117554,2460.76681184769,"0",2,6,6
14,20,1,0.479790925979614,4.01594495773315,2462.7663807869,"0",2,5,6
14,20,1,0.441450834274292,5.99928903579712,2464.74972581863,"0",1,3,6
14,20,1,0.523205995559692,7.9992139339447,2466.7496509552,"0",0,5,6
14,20,1,0.720184087753296,9.99931001663208,2468.74974679947,"0",1,0,6
14,20,1,0.523766040802002,11.9995441436768,2470.74998188019,"0",1,4,6
14,20,1,0.598495006561279,14.0162949562073,2472.76673293114,"0",2,5,6
14,20,1,0,14.0165529251099,2472.76698899269,"Reward",0,0,6
14,8,0,0.252502918243408,0.255368947982788,2479.07303881645,"0",1,0,6
14,8,0,0,0.255506038665771,2479.07317590714,"Quit",0,0,6
14,4,0,0.242990016937256,0.246283054351807,2483.3472700119,"0",1,5,6
14,4,0,0,0.246423006057739,2483.34741091728,"Quit",0,0,6
14,20,1,0.546808004379272,1.99956011772156,2489.38374686241,"0",0,2,6
14,20,1,0.579648017883301,4.01622700691223,2491.40041589737,"0",2,2,6
14,20,1,0.513637065887451,6.01602721214294,2493.40021491051,"0",2,4,6
14,20,1,0.681069135665894,8.01625800132751,2495.40044689178,"0",2,6,6
14,20,1,0.705363035202026,9.99962115287781,2497.38380980492,"0",1,1,6
14,20,1,0.580399036407471,11.9994380474091,2499.38362598419,"0",0,6,6
14,20,1,0.648306131362915,14.0161712169647,2501.40035891533,"0",2,0,6
14,20,1,0,14.0163772106171,2501.40056395531,"Reward",0,0,6
14,8,0,0.253928899765015,0.273435831069946,2507.72492098808,"0",0,7,6
14,8,0,0,0.273571968078613,2507.72505688667,"Quit",0,0,6
14,4,0,0.252378940582275,0.255635023117065,2512.00721979141,"0",1,5,6
14,4,0,0,0.25578498840332,2512.00736880302,"Quit",0,0,6
14,8,0,0.288397073745728,0.294064998626709,2516.32892298698,"0",1,6,6
14,8,0,0,0.294211149215698,2516.32906794548,"Quit",0,0,6
14,4,0,0.0279948711395264,0.0471529960632324,2520.41558599472,"0",0,2,6
14,4,0,0,0.0478730201721191,2520.41630601883,"Quit",0,0,6
14,20,1,0.648375034332275,2.01564192771912,2526.46749782562,"0",2,6,6
14,20,1,0.580677032470703,4.01564693450928,2528.46750283241,"0",2,7,6
14,20,1,0.562916040420532,5.9991660118103,2530.45102286339,"0",0,4,6
14,20,1,0.531506061553955,7.99889183044434,2532.45074796677,"0",0,7,6
14,20,1,0.522860050201416,9.99908590316772,2534.45094180107,"0",0,7,6
14,20,1,0.617429971694946,11.9994099140167,2536.45126581192,"0",0,1,6
14,20,1,0.547347068786621,14.0160009860992,2538.46785783768,"0",2,4,6
14,20,1,0,14.0162589550018,2538.46811389923,"Reward",0,0,6
14,8,0,0.24964714050293,0.254063129425049,2544.77270388603,"0",1,1,6
14,8,0,0,0.254203081130981,2544.77284383774,"Quit",0,0,6
14,20,1,0.537317037582397,1.99928402900696,2550.80140781403,"0",0,1,6
14,20,1,0.51387619972229,4.01582407951355,2552.81794786453,"0",2,7,6
14,20,1,0.447808980941772,6.01603102684021,2554.81815600395,"0",2,5,6
14,20,1,0.457195997238159,7.99951910972595,2556.80164289474,"0",0,6,6
14,20,1,0.469961881637573,9.99945402145386,2558.80157899857,"0",0,1,6
14,20,1,0.514759063720703,12.016037940979,2560.81816196442,"0",2,7,6
14,20,1,0.585010051727295,13.9993231296539,2562.801445961,"0",0,2,6
14,20,1,0,13.9995310306549,2562.801653862,"Reward",0,0,6
14,4,0,0.251055955886841,0.255490064620972,2569.10808897018,"0",1,4,6
14,4,0,0,0.255641937255859,2569.10824084282,"Quit",0,0,6
14,4,0,0.282818794250488,0.302114009857178,2573.43811583519,"0",0,0,6
14,4,0,0,0.302252054214478,2573.43825292587,"Quit",0,0,6
14,8,0,0.335053205490112,0.356738805770874,2577.82520198822,"0",0,1,6
14,8,0,0,0.356890916824341,2577.82535386086,"Quit",0,0,6
