"Handling","Reward","Choice","Task.RT","Choice.RT","Experiment.Time","Trial.Outcome","Task.Type","Task.Setup","Block"
10,8,2,1.00004506111145,1.99985885620117,9.04208111763,"0",1,2,1
10,8,1,0.984915018081665,3.99989891052246,11.0421211719513,"0",0,5,1
10,8,1,0.71838903427124,5.99991989135742,13.0421421527863,"0",1,0,1
10,8,1,0.778985977172852,8.01676297187805,15.0589849948883,"0",2,3,1
10,8,1,0.603737831115723,10.0003409385681,17.0425631999969,"0",0,3,1
10,8,1,0,10.0005509853363,17.0427720546722,"Reward",0,0,1
10,4,0,0.411862850189209,0.415295839309692,27.5253531932831,"0",1,2,1
10,4,0,0,0.415426969528198,27.525484085083,"Quit",0,0,1
10,20,1,0.73050594329834,1.99868297576904,37.5589590072632,"0",0,6,1
10,20,1,0.647021055221558,3.99888896942139,39.5591650009155,"0",0,2,1
10,20,1,0.597623109817505,6.01601791381836,41.5762941837311,"0",2,0,1
10,20,2,1.00009298324585,7.99947690963745,43.5597519874573,"0",0,4,1
10,20,1,0.65508508682251,9.99921298027039,45.5594890117645,"0",0,2,1
10,20,1,0,10.0005278587341,45.5608031749725,"Reward",0,0,1
10,8,1,0.591753005981445,1.99871802330017,57.6093780994415,"0",0,0,1
10,8,1,0.631995916366577,4.01591682434082,59.6265771389008,"0",2,4,1
10,8,1,0.471200942993164,5.99929785728455,61.6099581718445,"0",0,3,1
10,8,1,0.689349889755249,7.99909281730652,63.6097531318665,"0",1,2,1
10,8,1,0.630888223648071,10.0156588554382,65.6263191699982,"0",2,6,1
10,8,1,0,10.0158638954163,65.6265230178833,"Reward",0,0,1
10,20,1,0.583093881607056,2.06674695014954,77.7432429790497,"0",2,0,1
10,20,1,0.835820913314819,4.00027298927307,79.6767690181732,"0",1,1,1
10,20,1,0.459805011749268,6.00033688545227,81.676833152771,"0",1,1,1
10,20,1,0.615115165710449,8.00036096572876,83.6768569946289,"0",2,1,1
10,20,1,0.934609889984131,10.0002000331879,85.676696062088,"0",0,4,1
10,20,1,0,10.0004060268402,85.6769020557404,"Reward",0,0,1
10,4,0,0.508724927902222,0.514961957931519,96.2433261871338,"0",1,3,1
10,4,0,0,0.5156409740448,96.2440052032471,"Quit",0,0,1
10,20,1,0.77278208732605,1.99924778938293,106.277274131775,"0",1,3,1
10,20,1,0.831668138504028,3.99932289123535,108.277348995209,"0",0,7,1
10,20,1,0.812171936035156,5.99932885169983,110.277355194092,"0",1,6,1
10,20,1,0.831719160079956,8.01588296890259,112.293908119202,"0",2,4,1
10,20,1,0.548752069473267,10.0160927772522,114.294119119644,"0",2,6,1
10,20,1,0,10.0163018703461,114.294326066971,"Reward",0,0,1
10,4,0,0.565262794494629,0.567139863967896,124.912196159363,"0",2,6,1
10,4,0,0,0.568086862564087,124.913143157959,"Quit",0,0,1
10,20,1,0.778398036956787,1.99920296669006,134.94446015358,"0",1,6,1
10,20,1,0.592257022857666,3.99926495552063,136.94452214241,"0",0,6,1
10,20,1,0.615056037902832,6.01625800132751,138.961513996124,"0",2,0,1
10,20,1,0.581439018249512,7.99930596351624,140.944563150406,"0",0,2,1
10,20,2,0.681213855743408,10.0161221027374,142.961379051208,"0",2,2,1
10,20,1,0,10.0163280963898,142.961584091187,"Reward",0,0,1
10,4,0,0.370405912399292,0.373703002929688,153.386362075806,"0",1,5,1
10,4,0,0,0.374356031417847,153.387015104294,"Quit",0,0,1
10,8,0,0.400108098983765,0.419291973114014,161.83193397522,"0",0,0,1
10,8,0,0,0.419433116912842,161.832074165344,"Quit",0,0,1
10,8,1,0.691521883010864,1.99871802330017,171.861804008484,"0",1,5,1
10,8,1,0.631750106811523,4.01545810699463,173.878544092178,"0",2,5,1
10,8,1,0.428512096405029,5.99853897094727,175.86162519455,"0",1,4,1
10,8,1,0.499370098114014,7.99885201454163,177.861937999725,"0",0,3,1
10,8,1,0.864473104476929,9.99906897544861,179.862155199051,"0",1,2,1
10,8,1,0,9.99928903579712,179.862374067307,"Reward",0,0,1
10,20,1,0.796241998672485,1.99900412559509,191.912186145782,"0",0,1,1
10,20,1,0.7552809715271,3.99879813194275,193.911981105804,"0",0,0,1
10,20,1,0.692450046539307,5.99910402297974,195.912288188934,"0",1,1,1
10,20,1,0.642709970474243,7.99930810928345,197.912491083145,"0",1,5,1
10,20,1,0.698278903961182,10.0157930850983,199.92897605896,"0",2,0,1
10,20,1,0,10.0160031318665,199.929185152054,"Reward",0,0,1
10,20,2,1.00011777877808,1.99891996383667,211.979099988937,"0",0,1,1
10,20,1,0.584504127502441,3.99909806251526,213.979278087616,"0",0,5,1
10,20,1,0.630378007888794,6.0159900188446,215.996170043945,"0",2,4,1
10,20,2,1.00012898445129,7.99913692474365,217.979317188263,"0",0,4,1
10,20,2,0,8.00044894218445,217.980628013611,"Forced travel",0,0,1
10,8,1,0.514647960662842,2.01612997055054,228.029582977295,"0",2,5,1
10,8,1,0.564703941345215,4.01611089706421,230.029564142227,"0",2,2,1
10,8,1,0.331250905990601,6.01593399047852,232.029386997223,"0",2,7,1
10,8,1,0.617309093475342,7.99948000907898,234.012933015823,"0",0,0,1
10,8,1,0.598453998565674,10.0162370204926,236.029689073563,"0",2,3,1
10,8,1,0,10.0164430141449,236.029895067215,"Reward",0,0,1
10,8,0,0.348909139633179,0.350888967514038,246.431818008423,"0",2,6,1
10,8,0,0,0.351880073547363,246.432809114456,"Quit",0,0,1
10,4,0,0.324072122573853,0.329428911209106,254.793618202209,"0",1,7,1
10,4,0,0,0.329569101333618,254.793757200241,"Quit",0,0,1
10,4,0,0.29817008972168,0.317970991134644,263.149079084396,"0",0,7,1
10,4,0,0,0.318116903305054,263.14922618866,"Quit",0,0,1
10,20,1,0.736281871795654,1.99914908409119,273.180545091629,"0",1,0,1
10,20,1,0.761317014694214,3.99870610237122,275.180102109909,"0",0,2,1
10,20,1,0.647556066513062,5.99900603294373,277.180402040482,"0",1,1,1
10,20,1,0.478491067886353,7.99924492835999,279.180639982224,"0",1,3,1
10,20,1,0.521512031555176,9.9989070892334,281.180303096771,"0",0,2,1
10,20,1,0,9.99911403656006,281.180509090424,"Reward",0,0,1
10,8,1,0.603343963623047,1.99898910522461,293.230739116669,"0",1,7,1
10,8,1,0.545045137405396,3.99897003173828,295.230720996857,"0",0,2,1
10,8,1,0.803405046463013,5.9991979598999,297.230947971344,"0",1,6,1
10,8,1,0.615176916122437,8.01572799682617,299.247479200363,"0",2,2,1
10,8,1,0.569541931152344,9.99930191040039,301.231053113937,"0",0,6,1
10,8,1,0,10.0006151199341,301.232364177704,"Reward",0,0,1
10,4,0,0.407831907272339,0.411421060562134,311.693552017212,"0",1,5,1
10,4,0,0,0.413191080093384,311.695322036743,"Quit",0,0,1
10,20,1,0.615248918533325,1.9991500377655,321.731245040894,"0",1,0,1
10,20,1,0.686819076538086,3.99940299987793,323.731498003006,"0",1,6,1
10,20,1,0.473822116851807,5.99939298629761,325.731489181519,"0",1,1,1
10,20,1,0.436156034469604,7.99945092201233,327.731547117233,"0",1,0,1
10,20,1,0.664892911911011,10.0157129764557,329.747809171677,"0",2,5,1
10,20,1,0,10.0159211158752,329.748016119003,"Reward",0,0,1
10,4,0,0.402173042297363,0.421700000762939,340.220970153809,"0",0,5,1
10,4,0,0,0.422364950180054,340.221634149551,"Quit",0,0,1
10,8,1,0.565430879592896,2.01567602157593,350.264917135239,"0",2,5,1
10,8,1,0.447175025939941,4.01570510864258,352.264945983887,"0",2,6,1
10,8,1,0.581238031387329,6.015949010849,354.265190124512,"0",2,3,1
10,8,1,0.464260101318359,8.01600122451782,356.265241146088,"0",2,6,1
10,8,1,0.82283091545105,9.99932503700256,358.248565196991,"0",0,1,1
10,8,1,0,9.99953317642212,358.248773097992,"Reward",0,0,1
10,4,0,0.397870063781738,0.417366027832031,368.717498064041,"0",0,5,1
10,4,0,0,0.419172048568726,368.719304084778,"Quit",0,0,1
10,8,0,0.676693201065063,0.679841995239258,377.429771184921,"0",1,0,1
10,8,0,0,0.679986000061035,377.42991399765,"Quit",0,0,1
10,8,1,0.619901895523071,1.99885487556458,387.465615987778,"0",0,0,1
10,8,1,0.497171878814697,4.01592898368835,389.482691049576,"0",2,4,1
10,8,1,0.519458055496216,5.99878787994385,391.465548992157,"0",1,4,1
10,8,2,0.996578931808472,8.01580190658569,393.482563972473,"0",2,3,1
10,8,1,0.729310989379883,10.0160298347473,395.482791185379,"0",2,0,1
10,8,1,0,10.0162379741669,395.48299908638,"Reward",0,0,1
10,4,0,0.299284934997559,0.301028966903687,405.834616184235,"0",2,5,1
10,4,0,0,0.301224946975708,405.834812164307,"Quit",0,0,1
10,20,1,0.582271814346313,2.01587581634521,415.882943153381,"0",2,5,1
10,20,1,0.600054025650024,3.99924898147583,417.866317033768,"0",0,3,1
10,20,1,0.672533988952637,5.999342918396,419.866410017014,"0",0,7,1
10,20,1,0.663393020629883,8.0162148475647,421.883282184601,"0",2,7,1
10,20,1,0.560534000396729,9.99938797950745,423.866455078125,"0",0,5,1
10,20,1,0,10.0014908313751,423.868556976318,"Reward",0,0,1
14,4,0,0.372082948684692,0.396243810653687,440.547525167465,"0",0,1,2
14,4,0,0,0.396394014358521,440.547675132751,"Quit",0,0,2
14,20,1,0.730999946594238,1.99902105331421,446.583561182022,"0",1,6,2
14,20,1,0.782409906387329,3.9990382194519,448.583578109741,"0",0,4,2
14,20,2,0.831545114517212,6.01579904556274,450.600337982178,"0",2,1,2
14,20,1,0.587701082229614,7.9992880821228,452.583827972412,"0",0,2,2
14,20,1,0.77906608581543,9.99907612800598,454.58361697197,"0",1,2,2
14,20,1,0.73160195350647,12.0158581733704,456.600399017334,"0",2,3,2
14,20,1,0.57890796661377,13.9992320537567,458.583773136139,"0",1,1,2
14,20,1,0,13.9994411468506,458.583980083466,"Reward",0,0,2
14,20,1,0.661925792694092,1.99926710128784,466.634145021439,"0",1,6,2
14,20,1,0.647479057312012,4.01567506790161,468.650552988052,"0",2,3,2
14,20,1,0.493390083312988,5.99911904335022,470.63399720192,"0",1,2,2
14,20,2,0.997053861618042,8.01602816581726,472.650906085968,"0",2,1,2
14,20,1,0.660161018371582,9.99939203262329,474.634270191193,"0",0,7,2
14,20,1,0.575376033782959,11.9994621276855,476.634340047836,"0",1,7,2
14,20,1,0.549245834350586,13.9991841316223,478.634062051773,"0",1,5,2
14,20,1,0,13.9993941783905,478.634271144867,"Reward",0,0,2
14,8,0,0.346140146255493,0.35147500038147,485.036807060242,"0",1,7,2
14,8,0,0,0.352169990539551,485.037501096725,"Quit",0,0,2
14,8,0,0.298299789428711,0.300039052963257,489.368688106537,"0",2,6,2
14,8,0,0,0.301367044448853,489.370016098022,"Quit",0,0,2
14,4,0,0.274712085723877,0.280349969863892,493.682491064072,"0",1,6,2
14,4,0,0,0.280484914779663,493.68262720108,"Quit",0,0,2
14,20,1,0.747844934463501,2.01606893539429,499.734714984894,"0",2,2,2
14,20,1,0.587366104125977,3.99954295158386,501.718189001083,"0",0,3,2
14,20,1,0.711393117904663,5.9993588924408,503.718006134033,"0",1,2,2
14,20,1,0.898206949234009,8.01596903800964,505.734616041183,"0",2,3,2
14,20,1,0.628535032272339,9.99934196472168,507.717988967896,"0",0,0,2
14,20,1,0.431666851043701,12.0160920619965,509.73473906517,"0",2,6,2
14,20,1,0.514160871505737,14.015928030014,511.734575033188,"0",2,3,2
14,20,1,0,14.016135931015,511.734781980515,"Reward",0,0,2
14,20,2,0.665194988250732,2.01596999168396,519.801851034164,"0",2,4,2
14,20,1,0.579970121383667,4.01553392410278,521.801414966583,"0",2,0,2
14,20,1,0.709625005722046,5.99885201454163,523.784733057022,"0",1,7,2
14,20,1,0.571339130401611,7.99934005737305,525.785221099854,"0",1,0,2
14,20,1,0.631501913070679,10.0158128738403,527.801694154739,"0",2,3,2
14,20,1,0.57682204246521,11.9989290237427,529.784810066223,"0",1,7,2
14,20,1,0.750981092453003,13.9990289211273,531.784910202026,"0",0,7,2
14,20,1,0,13.9992370605469,531.785116195679,"Reward",0,0,2
14,8,0,0.30456805229187,0.324118137359619,538.160401105881,"0",0,6,2
14,8,0,0,0.324272155761719,538.160554170609,"Quit",0,0,2
14,4,0,0.290163993835449,0.310081005096436,542.496402025223,"0",0,6,2
14,4,0,0,0.310746908187866,542.497068166733,"Quit",0,0,2
14,4,0,0.307270765304565,0.312661170959473,546.848719120026,"0",1,7,2
14,4,0,0,0.313911199569702,546.849969148636,"Quit",0,0,2
14,8,0,0.219350099563599,0.239233016967773,551.125421047211,"0",0,5,2
14,8,0,0,0.23937201499939,551.125560045242,"Quit",0,0,2
14,4,0,0.306313037872314,0.309557199478149,555.462787151337,"0",1,5,2
14,4,0,0,0.310850143432617,555.464080095291,"Quit",0,0,2
14,8,1,0.64847207069397,2.01572108268738,561.519000053406,"0",2,3,2
14,8,1,0.566501140594482,3.99906706809998,563.502345085144,"0",0,2,2
14,8,1,0.563894987106323,6.01560187339783,565.518879175186,"0",2,1,2
14,8,2,0.598719120025635,8.01564598083496,567.518923997879,"0",2,3,2
14,8,1,0.641517162322998,9.9991819858551,569.502460002899,"0",0,6,2
14,8,1,0.60819411277771,11.9995000362396,571.502778053284,"0",1,0,2
14,8,1,0.686944961547852,13.999235868454,573.502514123917,"0",1,3,2
14,8,1,0,14.0013499259949,573.504626989365,"Reward",0,0,2
14,20,1,0.778325080871582,1.99910187721252,581.552798986435,"0",0,7,2
14,20,1,0.516093015670776,3.99926590919495,583.552962064743,"0",1,3,2
14,20,1,0.612344026565552,5.99909496307373,585.552792072296,"0",0,1,2
14,20,1,0.765115022659302,8.01580476760864,587.56950211525,"0",2,3,2
14,20,1,0.680552959442139,9.9991569519043,589.552854061127,"0",1,2,2
14,20,1,0.630877017974854,12.0160598754883,591.569756031036,"0",2,0,2
14,20,1,0.520595073699951,13.9994747638702,593.553172111511,"0",0,0,2
14,20,1,0,13.9996838569641,593.553380012512,"Reward",0,0,2
14,20,1,0.692394018173218,1.99952387809753,601.603176116943,"0",0,1,2
14,20,1,0.438735008239746,3.99951195716858,603.603164196014,"0",0,6,2
14,20,1,0.488981962203979,5.99973797798157,605.603389978409,"0",1,3,2
14,20,1,0.491101980209351,7.99950408935547,607.603156089783,"0",0,1,2
14,20,1,0.59118390083313,9.99933910369873,609.602991104126,"0",0,3,2
14,20,1,0.645817995071411,11.9998989105225,611.603551149368,"0",1,2,2
14,20,1,0.637457847595215,13.9996380805969,613.603290081024,"0",0,3,2
14,20,1,0,13.9998478889465,613.603499174118,"Reward",0,0,2
14,4,0,0.695594072341919,0.7151198387146,620.368300199509,"0",0,5,2
14,4,0,0,0.71525502204895,620.368435144424,"Quit",0,0,2
14,8,0,0.345860958099365,0.369983911514282,624.774379968643,"0",0,1,2
14,8,0,0,0.370124101638794,624.774521112442,"Quit",0,0,2
14,4,0,0.659676074981689,0.683567047119141,629.488191127777,"0",0,7,2
14,4,0,0,0.683703899383545,629.488329172134,"Quit",0,0,2
14,8,0,0.276371002197266,0.281753063201904,633.803192138672,"0",1,6,2
14,8,0,0,0.282425880432129,633.803864002228,"Quit",0,0,2
14,8,0,0.232649087905884,0.234389066696167,638.072451114655,"0",2,0,2
14,8,0,0,0.234595060348511,638.072657108307,"Quit",0,0,2
14,4,0,0.295588970184326,0.301391839981079,642.406167984009,"0",1,7,2
14,4,0,0,0.301535844802856,642.406311988831,"Quit",0,0,2
14,20,1,0.681883811950684,2.01582813262939,648.45397901535,"0",2,1,2
14,20,1,0.524425983428955,3.99922108650208,650.437371969223,"0",1,2,2
14,20,1,0.515859127044678,5.99975514411926,652.437906980515,"0",1,0,2
14,20,1,0.498975038528442,7.9992082118988,654.43735909462,"0",1,7,2
14,20,1,0.524393081665039,9.99931120872498,656.437462091446,"0",0,1,2
14,20,1,0.664031028747559,12.0159430503845,658.454094171524,"0",2,0,2
14,20,1,0.648630857467651,14.0160481929779,660.454198122025,"0",2,3,2
14,20,1,0,14.0162551403046,660.454405069351,"Reward",0,0,2
14,20,1,0.648857116699219,2.01578402519226,668.521002054214,"0",2,5,2
14,20,1,0.639921903610229,3.99911999702454,670.504338026047,"0",1,2,2
14,20,1,0.480859041213989,6.01585292816162,672.521071195602,"0",2,6,2
14,20,1,0.538697957992554,7.99887204170227,674.50408911705,"0",1,2,2
14,20,1,0.821040868759155,9.99894905090332,676.504166126251,"0",0,5,2
14,20,1,0.451124906539917,11.9989950656891,678.504213094711,"0",0,2,2
14,20,1,0.614277124404907,14.0159778594971,680.521195173264,"0",2,4,2
14,20,1,0,14.0172898769379,680.522507190704,"Reward",0,0,2
14,20,1,0.715194940567017,2.01538300514221,688.587737083435,"0",2,0,2
14,20,1,0.538161039352417,3.99898481369019,690.571339130402,"0",1,3,2
14,20,1,0.612985849380493,5.99909687042236,692.571451187134,"0",0,1,2
14,20,1,0.630925893783569,8.0157458782196,694.588100194931,"0",2,6,2
14,20,1,0.568521022796631,9.99912691116333,696.571480989456,"0",0,1,2
14,20,1,0.701694011688232,11.9991958141327,698.571550130844,"0",0,6,2
14,20,1,0.459022998809814,13.9992108345032,700.571565151215,"0",1,4,2
14,20,1,0,13.9994218349457,700.571775197983,"Reward",0,0,2
14,4,0,0.290358066558838,0.309942007064819,706.932656049728,"0",0,4,2
14,4,0,0,0.310089111328125,706.932803153992,"Quit",0,0,2
14,20,1,0.588289022445679,1.99925398826599,712.971724033356,"0",1,1,2
14,20,1,0.681657791137695,4.01582193374634,714.988291978836,"0",2,7,2
14,20,1,0.402865886688232,5.99910092353821,716.971570014954,"0",1,5,2
14,20,1,0.376848936080933,7.99941802024841,718.971887111664,"0",1,4,2
14,20,1,0.614295959472656,10.0161738395691,720.988644123077,"0",2,3,2
14,20,1,0.628216981887817,11.9995429515839,722.972012996674,"0",1,6,2
14,20,1,0.814545869827271,14.0162689685822,724.988739013672,"0",2,1,2
14,20,1,0,14.0164790153503,724.988948106766,"Reward",0,0,2
14,8,0,0.357131958007812,0.379786014556885,731.419559001923,"0",0,0,2
14,8,0,0,0.37992000579834,731.419692993164,"Quit",0,0,2
14,8,0,0.451812028884888,0.45777416229248,735.914467096329,"0",1,6,2
14,8,0,0,0.457929134368896,735.914622068405,"Quit",0,0,2
14,4,0,0.291567087173462,0.311455011367798,740.267487049103,"0",0,1,2
14,4,0,0,0.311589956283569,740.267621040344,"Quit",0,0,2
14,8,0,0.315750122070312,0.317492008209229,744.624293088913,"0",2,4,2
14,8,0,0,0.317692995071411,744.624494075775,"Quit",0,0,2
14,20,1,0.51281213760376,1.9987850189209,750.655685186386,"0",1,2,2
14,20,1,0.648455142974854,4.01540207862854,752.672302007675,"0",2,4,2
14,20,1,0.528203010559082,5.99905395507812,754.655955076218,"0",1,0,2
14,20,1,0.539856910705566,7.99914216995239,756.656042098999,"0",0,3,2
14,20,1,0.501748085021973,9.99844217300415,758.655342102051,"0",1,6,2
14,20,1,0.509906053543091,11.9991781711578,760.656078100204,"0",1,2,2
14,20,1,0.554462909698486,13.9994180202484,762.656316995621,"0",1,3,2
14,20,1,0,13.9996411800385,762.656540155411,"Reward",0,0,2
14,8,0,0.430943012237549,0.432700157165527,769.139907121658,"0",2,4,2
14,8,0,0,0.432896137237549,769.140102148056,"Quit",0,0,2
14,20,1,0.554758071899414,1.99904108047485,775.172943115234,"0",1,5,2
14,20,1,0.627007961273193,3.99908804893494,777.172991037369,"0",0,5,2
14,20,1,0.663516044616699,6.01603007316589,779.1899330616,"0",2,0,2
14,20,1,0.703037977218628,7.99920511245728,781.173107147217,"0",1,7,2
14,20,1,0.698333024978638,10.0158801078796,783.189783096313,"0",2,4,2
14,20,1,0.647931098937988,12.0158839225769,785.189787149429,"0",2,2,2
14,20,1,0.594571113586426,13.9992690086365,787.17317199707,"0",1,1,2
14,20,1,0,13.9994790554047,787.17338013649,"Reward",0,0,2
14,4,0,0.354021072387695,0.374241828918457,793.598531007767,"0",0,3,2
14,4,0,0,0.374377012252808,793.598666191101,"Quit",0,0,2
14,4,0,0.632209062576294,0.634072065353394,798.258522033691,"0",2,0,2
14,4,0,0,0.635390996932983,798.259840965271,"Quit",0,0,2
14,20,1,0.582985877990723,1.998939037323,804.289958000183,"0",0,5,2
14,20,1,0.434812068939209,3.99941110610962,806.290431022644,"0",1,7,2
14,20,1,0.542825937271118,5.99902296066284,808.290042161942,"0",0,6,2
14,20,1,0.430184841156006,7.99889802932739,810.289916992188,"0",0,2,2
14,20,1,0.561241149902344,9.99923896789551,812.290260076523,"0",0,1,2
14,20,1,0.414341926574707,12.0162320137024,814.307250976562,"0",0,5,2
14,20,1,0.63051700592041,14.0160570144653,816.307075977325,"0",2,3,2
14,20,1,0,14.0162649154663,816.307283163071,"Reward",0,0,2
14,20,1,0.650524139404297,1.99887204170227,824.35720705986,"0",1,1,2
14,20,1,0.581728935241699,4.01556801795959,826.373903036118,"0",2,3,2
14,20,1,0.569023847579956,5.99894404411316,828.357279062271,"0",0,6,2
14,20,1,0.802546977996826,7.99903607368469,830.357371091843,"0",0,7,2
14,20,1,0.48129677772522,9.99922394752502,832.357558965683,"0",1,4,2
14,20,1,0.627607107162476,11.9992809295654,834.357616186142,"0",1,5,2
14,20,1,0.814565896987915,14.0155999660492,836.373934984207,"0",2,1,2
14,20,1,0,14.0158069133759,836.374140977859,"Reward",0,0,2
14,4,0,0.339845180511475,0.359584093093872,842.784744024277,"0",0,4,2
14,4,0,0,0.360238075256348,842.785398006439,"Quit",0,0,2
14,8,0,0.298817873001099,0.300564050674438,847.125967979431,"0",2,5,2
14,8,0,0,0.300765037536621,847.126168966293,"Quit",0,0,2
14,4,0,0.257569074630737,0.277907133102417,851.436618089676,"0",0,7,2
14,4,0,0,0.278042078018188,851.436753034592,"Quit",0,0,2
2,4,0,0.332242965698242,0.334128141403198,861.526337146759,"0",2,6,3
2,4,0,0,0.33432412147522,861.526533126831,"Quit",0,0,3
2,4,0,0.449156999588013,0.454699039459229,878.012969970703,"0",1,6,3
2,4,0,0,0.455438137054443,878.013709068298,"Quit",0,0,3
2,8,0,0.940516948699951,0.944040060043335,894.985762119293,"0",1,2,3
2,8,0,0,0.9441978931427,894.985920190811,"Quit",0,0,3
2,20,1,0.764930009841919,2.01528191566467,913.042266130447,"0",2,3,3
2,20,1,0,2.01738500595093,913.044368028641,"Reward",0,0,3
2,20,2,0.996435165405273,2.01570415496826,933.109024047852,"0",2,7,3
2,20,2,0,2.01669502258301,933.110014200211,"Forced travel",0,0,3
2,8,1,0.531208038330078,1.99948000907898,951.142722129822,"0",0,6,3
2,8,1,0,1.99968886375427,951.142930984497,"Reward",0,0,3
2,4,0,0.819343090057373,0.822642087936401,970.016731023788,"0",1,5,3
2,4,0,0,0.822801113128662,970.016890048981,"Quit",0,0,3
2,8,1,0.50590705871582,1.99942398071289,988.043789148331,"0",1,7,3
2,8,1,0,1.99963212013245,988.043996095657,"Reward",0,0,3
2,4,0,0.415621042251587,0.417454957962036,1006.51218605042,"0",2,2,3
2,4,0,0,0.417651891708374,1006.51238298416,"Quit",0,0,3
2,20,1,0.908261060714722,1.99976396560669,1024.5442211628,"0",0,4,3
2,20,1,0,1.99997305870056,1024.5444290638,"Reward",0,0,3
2,8,1,0.848627090454102,2.01563310623169,1044.61123919487,"0",2,2,3
2,8,1,0,2.01584720611572,1044.61145114899,"Reward",0,0,3
2,20,1,0.619040012359619,2.01538610458374,1064.67810702324,"0",0,3,3
2,20,1,0,2.01559495925903,1064.67831516266,"Reward",0,0,3
2,8,1,0.809171199798584,1.99938011169434,1084.72875404358,"0",0,5,3
2,8,1,0,2.00036406517029,1084.72973608971,"Reward",0,0,3
2,20,1,0.599740028381348,1.99896001815796,1104.77909803391,"0",1,7,3
2,20,1,0,1.99917697906494,1104.77931499481,"Reward",0,0,3
2,4,1,0.726523876190186,1.99920797348022,1124.82949614525,"0",0,7,3
2,4,1,0,2.00132203102112,1124.83161020279,"Reward",0,0,3
2,4,1,0.624384164810181,1.99909901618958,1144.87995219231,"0",0,7,3
2,4,1,0,2.00008106231689,1144.88093209267,"Reward",0,0,3
2,20,1,0.589184999465942,1.99936699867249,1164.93030905724,"0",0,4,3
2,20,1,0,1.99957394599915,1164.93051505089,"Reward",0,0,3
2,8,1,0.77851414680481,1.99900484085083,1184.98062515259,"0",1,7,3
2,8,1,0,1.9999840259552,1184.9816031456,"Reward",0,0,3
2,8,1,0.605530023574829,1.99900889396667,1205.08100914955,"0",0,3,3
2,8,1,0,2.00110793113708,1205.08310699463,"Reward",0,0,3
2,4,1,0.732311010360718,1.99875688552856,1225.13114619255,"0",1,2,3
2,4,1,0,1.99898099899292,1225.13136911392,"Reward",0,0,3
2,8,1,0.84108304977417,1.99896693229675,1245.18154096603,"0",1,2,3
2,8,1,0,2.00109195709229,1245.18366503716,"Reward",0,0,3
2,20,1,0.622605085372925,1.99939298629761,1265.23205900192,"0",1,3,3
2,20,1,0,2.00036382675171,1265.23302817345,"Reward",0,0,3
10,4,0,0.506530046463013,0.52604603767395,1371.47707605362,"0",0,1,4
10,4,0,0,0.526194095611572,1371.47722411156,"Quit",0,0,4
10,8,0,0.281958103179932,0.28383994102478,1379.80097198486,"0",2,3,4
10,8,0,0,0.28515100479126,1379.80228209496,"Quit",0,0,4
10,20,1,0.651700973510742,1.99938106536865,1389.83450198174,"0",1,6,4
10,20,1,0.697684049606323,4.01600503921509,1391.851126194,"0",2,7,4
10,20,2,0.764915943145752,6.01602506637573,1393.85114598274,"0",2,6,4
10,20,1,0.577394008636475,7.99942708015442,1395.83454704285,"0",1,2,4
10,20,2,0.730587959289551,10.0160691738129,1397.85119009018,"0",2,0,4
10,20,2,0,10.0162720680237,1397.85139203072,"Forced travel",0,0,4
10,20,1,0.610181093215942,1.99852800369263,1407.88473105431,"0",1,4,4
10,20,1,0.66402792930603,4.01523494720459,1409.90143799782,"0",2,1,4
10,20,1,0.881550073623657,6.01532483100891,1411.90152812004,"0",2,0,4
10,20,1,0.565950155258179,7.99840402603149,1413.88460803032,"0",1,0,4
10,20,1,0.493956089019775,9.9985499382019,1415.88475298882,"0",0,6,4
10,20,1,0,9.99986386299133,1415.88606619835,"Reward",0,0,4
10,8,0,0.249521970748901,0.251262903213501,1426.18727016449,"0",2,4,4
10,8,0,0,0.251459121704102,1426.18746614456,"Quit",0,0,4
10,4,0,0.298448085784912,0.301137924194336,1434.52057719231,"0",2,1,4
10,4,0,0,0.301331996917725,1434.52077102661,"Quit",0,0,4
10,4,0,0.782017230987549,0.783742189407349,1443.33682513237,"0",2,7,4
10,4,0,0,0.784742116928101,1443.33782505989,"Quit",0,0,4
10,20,1,0.622513055801392,1.99896693229675,1453.36893796921,"0",0,7,4
10,20,1,0.536077976226807,3.9992299079895,1455.36919999123,"0",1,5,4
10,20,1,0.438814878463745,5.9990439414978,1457.36901497841,"0",1,7,4
10,20,1,0.512445211410522,7.99906396865845,1459.36903500557,"0",0,4,4
10,20,1,0.598031044006348,10.0157639980316,1461.38573503494,"0",2,0,4
10,20,1,0,10.0159800052643,1461.38594913483,"Reward",0,0,4
10,4,0,0.348347902297974,0.368493795394897,1471.80519318581,"0",0,6,4
10,4,0,0,0.369738817214966,1471.80643701553,"Quit",0,0,4
10,8,1,0.582024097442627,2.01572418212891,1481.85286307335,"0",2,7,4
10,8,1,0.420064926147461,3.99906206130981,1483.83619999886,"0",1,5,4
10,8,2,0.433811902999878,5.9990382194519,1485.83617711067,"0",1,1,4
10,8,1,0.615257978439331,8.01550316810608,1487.85264205933,"0",2,1,4
10,8,1,0.577466011047363,9.99916505813599,1489.83630418777,"0",1,1,4
10,8,1,0,9.99937605857849,1489.83651399612,"Reward",0,0,4
10,8,0,0.382667779922485,0.384387016296387,1500.27176904678,"0",2,3,4
10,8,0,0,0.384552001953125,1500.27193307877,"Quit",0,0,4
10,20,1,0.598479032516479,2.01564884185791,1510.31970715523,"0",2,3,4
10,20,1,0.510029077529907,3.99952483177185,1512.30358314514,"0",0,3,4
10,20,1,0.454708814620972,5.99911689758301,1514.30317497253,"0",0,4,4
10,20,1,0.496469974517822,7.99917697906494,1516.30323505402,"0",0,3,4
10,20,1,0.443432092666626,9.99917387962341,1518.3032310009,"0",0,6,4
10,20,1,0,9.99938201904297,1518.30343818665,"Reward",0,0,4
10,4,0,0.294470071792603,0.30049204826355,1528.65523910522,"0",1,4,4
10,4,0,0,0.300625085830688,1528.65537214279,"Quit",0,0,4
10,4,0,0.405134916305542,0.42510199546814,1537.11333417892,"0",0,3,4
10,4,0,0,0.425792932510376,1537.11402606964,"Quit",0,0,4
10,20,1,0.472241878509521,1.9991397857666,1547.15405011177,"0",0,2,4
10,20,1,0.463742971420288,3.99940800666809,1549.15431809425,"0",1,3,4
10,20,2,0.780623912811279,6.01584196090698,1551.17075204849,"0",2,4,4
10,20,1,0.596642017364502,7.9995129108429,1553.15442299843,"0",0,5,4
10,20,1,0.44177508354187,9.99909901618958,1555.15400910378,"0",0,3,4
10,20,1,0,9.99930381774902,1555.15421319008,"Reward",0,0,4
10,8,0,0.281777143478394,0.283517122268677,1565.48878407478,"0",2,5,4
10,8,0,0,0.28553318977356,1565.49079918861,"Quit",0,0,4
10,8,0,0.310030937194824,0.329493999481201,1573.8521001339,"0",0,5,4
10,8,0,0,0.329628944396973,1573.85223507881,"Quit",0,0,4
10,20,1,0.836506843566895,1.99929904937744,1583.88808202744,"0",0,1,4
10,20,1,0.831793069839478,4.01616096496582,1585.90494418144,"0",2,1,4
10,20,1,0.527366876602173,5.99936199188232,1587.88814496994,"0",0,4,4
10,20,1,0.430555105209351,7.99940705299377,1589.88819003105,"0",0,0,4
10,20,2,0.713942050933838,10.0160388946533,1591.90482115746,"0",2,7,4
10,20,1,0,10.0162498950958,1591.90503096581,"Reward",0,0,4
10,20,1,0.545096158981323,1.99932503700256,1603.95519804955,"0",1,4,4
10,20,1,0.563532114028931,4.01594209671021,1605.97181510925,"0",2,0,4
10,20,1,0.528101921081543,5.9994740486145,1607.95534706116,"0",0,6,4
10,20,1,0.548852920532227,8.01578307151794,1609.97165608406,"0",2,3,4
10,20,2,0.575865983963013,9.99941301345825,1611.95528507233,"0",1,5,4
10,20,1,0,9.9996349811554,1611.95550704002,"Reward",0,0,4
10,4,0,0.454800844192505,0.460125923156738,1622.46660399437,"0",1,6,4
10,4,0,0,0.460262060165405,1622.46674013138,"Quit",0,0,4
10,4,0,0.0429821014404297,0.0625989437103271,1630.56952500343,"0",0,4,4
10,4,0,0,0.063270092010498,1630.57019615173,"Quit",0,0,4
10,8,0,0.308887958526611,0.328625917434692,1638.93530511856,"0",0,5,4
10,8,0,0,0.328772783279419,1638.9354531765,"Quit",0,0,4
10,8,1,0.613526105880737,1.99875497817993,1648.97263598442,"0",0,4,4
10,8,1,0.438408851623535,3.99902009963989,1650.97290110588,"0",1,5,4
10,8,1,0.426281213760376,5.99858999252319,1652.97247099876,"0",0,0,4
10,8,1,0.630913972854614,8.01549506187439,1654.98937606812,"0",2,7,4
10,8,1,0.891002178192139,9.99883103370667,1656.97271203995,"0",0,7,4
10,8,1,0,9.99903798103333,1656.9729180336,"Reward",0,0,4
10,20,1,0.932773113250732,1.99908900260925,1669.02281308174,"0",0,2,4
10,20,1,0.509033918380737,3.99932384490967,1671.02304816246,"0",0,1,4
10,20,1,0.563678026199341,6.01600289344788,1673.03972697258,"0",2,7,4
10,20,1,0.638249158859253,7.99933695793152,1675.02306103706,"0",0,5,4
10,20,1,0.74791407585144,10.0160608291626,1677.03978514671,"0",2,6,4
10,20,1,0,10.0162689685822,1677.03999209404,"Reward",0,0,4
10,20,1,0.745298147201538,1.99874997138977,1689.08979701996,"0",0,0,4
10,20,2,0.96469783782959,4.01565885543823,1691.10670518875,"0",2,6,4
10,20,1,0.807466983795166,5.9990348815918,1693.09008216858,"0",1,0,4
10,20,1,0.736577987670898,7.99834799766541,1695.08939504623,"0",1,1,4
10,20,2,1.00004911422729,9.99894189834595,1697.08998918533,"0",0,0,4
10,20,2,0,9.99914383888245,1697.0901901722,"Forced travel",0,0,4
10,4,0,0.411718845367432,0.416799068450928,1705.54121303558,"0",1,1,4
10,4,0,0,0.416944026947021,1705.54135704041,"Quit",0,0,4
10,20,1,0.731349945068359,2.01558399200439,1715.59045004845,"0",2,3,4
10,20,1,0.896770000457764,4.01570987701416,1717.59057617188,"0",2,7,4
10,20,2,0.996238946914673,6.01581287384033,1719.59067797661,"0",2,7,4
10,20,1,0.523382186889648,7.99911189079285,1721.57397818565,"0",1,4,4
10,20,1,0.594036102294922,9.99919486045837,1723.57406020164,"0",0,0,4
10,20,1,0,9.99940395355225,1723.57426905632,"Reward",0,0,4
10,4,0,0.849834203720093,0.853318929672241,1734.47855401039,"0",1,2,4
10,4,0,0,0.853454113006592,1734.47868919373,"Quit",0,0,4
10,8,0,0.270466089248657,0.274646997451782,1742.78312706947,"0",1,2,4
10,8,0,0,0.275892019271851,1742.78437209129,"Quit",0,0,4
10,8,1,0.497193098068237,1.99909090995789,1752.80761814117,"0",0,2,4
10,8,1,0.555094003677368,3.99947190284729,1754.80799913406,"0",0,6,4
10,8,1,0.731688022613525,6.01661205291748,1756.82513904572,"0",2,3,4
10,8,1,0.434121131896973,7.99944305419922,1758.80796909332,"0",0,2,4
10,8,1,0.486237049102783,9.99968600273132,1760.80821299553,"0",1,5,4
10,8,1,0,9.99989604949951,1760.80842113495,"Reward",0,0,4
10,20,1,0.614902019500732,1.9995219707489,1772.85852718353,"0",1,6,4
10,20,1,0.510238885879517,3.99935603141785,1774.85836100578,"0",1,1,4
10,20,1,0.580998182296753,6.01600503921509,1776.87501001358,"0",2,3,4
10,20,1,0.515061855316162,8.0161190032959,1778.87512397766,"0",0,0,4
10,20,1,0.58049201965332,10.0163331031799,1780.87533807755,"0",2,7,4
10,20,1,0,10.0165441036224,1780.87554717064,"Reward",0,0,4
14,20,1,0.719416856765747,1.99963903427124,1798.90901207924,"0",1,3,5
14,20,1,0.614690065383911,4.01609587669373,1800.92547011375,"0",2,0,5
14,20,1,0.796252965927124,5.99942398071289,1802.90879702568,"0",0,7,5
14,20,1,0.632111072540283,7.99948000907898,1804.90885400772,"0",1,4,5
14,20,1,0.524029016494751,9.99934506416321,1806.90871906281,"0",0,7,5
14,20,1,0.629934787750244,12.0165710449219,1808.92594504356,"0",2,4,5
14,20,1,0.631098985671997,14.0166110992432,1810.92598605156,"0",2,4,5
14,20,1,0,14.0168790817261,1810.92625212669,"Reward",0,0,5
14,8,0,0.391777992248535,0.394627094268799,1817.37091112137,"0",1,3,5
14,8,0,0,0.394773006439209,1817.37105703354,"Quit",0,0,5
14,8,0,0.0494999885559082,0.0539491176605225,1821.46435213089,"0",1,4,5
14,8,0,0,0.0551979541778564,1821.46560096741,"Quit",0,0,5
14,20,1,0.563861131668091,2.01573610305786,1827.50927305222,"0",2,0,5
14,20,1,0.438417911529541,3.99892807006836,1829.49246501923,"0",1,4,5
14,20,1,0.58362603187561,5.99937415122986,1831.49291110039,"0",1,6,5
14,20,1,0.781574964523315,8.01574397087097,1833.50927996635,"0",2,5,5
14,20,1,0.730949878692627,10.0157339572906,1835.50927114487,"0",2,2,5
14,20,1,0.581933975219727,12.0160300731659,1837.50956702232,"0",2,6,5
14,20,1,0.494392871856689,13.9990520477295,1839.49258899689,"0",1,4,5
14,20,1,0,13.999274969101,1839.492811203,"Reward",0,0,5
14,4,0,0.339652061462402,0.359452962875366,1845.90254497528,"0",0,0,5
14,4,0,0,0.359647989273071,1845.90274119377,"Quit",0,0,5
14,4,0,0.235713005065918,0.241222143173218,1850.18533706665,"0",1,7,5
14,4,0,0,0.241390228271484,1850.18550515175,"Quit",0,0,5
14,4,0,0.290488958358765,0.310389995574951,1854.53757214546,"0",0,2,5
14,4,0,0,0.310524940490723,1854.53770709038,"Quit",0,0,5
14,8,0,0.926151990890503,0.94623589515686,1859.52343297005,"0",0,4,5
14,8,0,0,0.946377038955688,1859.52357411385,"Quit",0,0,5
14,4,0,0.68321704864502,0.702892065048218,1864.26368808746,"0",0,4,5
14,4,0,0,0.703636169433594,1864.26443314552,"Quit",0,0,5
14,8,0,0.281721115112305,0.283474922180176,1868.57789301872,"0",2,4,5
14,8,0,0,0.283674001693726,1868.57809209824,"Quit",0,0,5
14,20,1,0.533746957778931,1.99923419952393,1874.61018109322,"0",0,1,5
14,20,1,0.548376083374023,4.01592302322388,1876.62687015533,"0",2,2,5
14,20,2,0.798437833786011,6.01585602760315,1878.62680315971,"0",2,0,5
14,20,1,0.483298063278198,7.99939608573914,1880.61034297943,"0",1,7,5
14,20,1,0.550157070159912,9.99920916557312,1882.61015605927,"0",0,4,5
14,20,1,0.522326946258545,11.9990181922913,1884.60996508598,"0",0,6,5
14,20,1,0.702482223510742,13.9996490478516,1886.61059617996,"0",0,5,5
14,20,1,0,13.9998531341553,1886.61079907417,"Reward",0,0,5
14,20,1,0.807064056396484,1.99886202812195,1894.66031002998,"0",0,4,5
14,20,1,0.407824993133545,3.99925994873047,1896.66070699692,"0",0,4,5
14,20,1,0.695832014083862,5.99948692321777,1898.6609351635,"0",1,3,5
14,20,1,0.473870038986206,7.99915289878845,1900.66060018539,"0",1,4,5
14,20,1,0.59814190864563,10.0158009529114,1902.6772480011,"0",2,7,5
14,20,1,0.682240009307861,11.9992959499359,1904.66074299812,"0",0,5,5
14,20,1,0.748135089874268,14.0158939361572,1906.67734217644,"0",2,7,5
14,20,1,0,14.0172469615936,1906.67869400978,"Reward",0,0,5
14,20,1,0.507166862487793,1.99908590316772,1914.72753214836,"0",0,6,5
14,20,1,0.793421983718872,3.99926996231079,1916.72771501541,"0",1,6,5
14,20,1,0.660923957824707,5.99926900863647,1918.72771406174,"0",1,2,5
14,20,1,0.898360967636108,8.01604795455933,1920.74449205399,"0",2,6,5
14,20,2,0.647790908813477,10.0161149501801,1922.74456000328,"0",2,6,5
14,20,2,0.996222972869873,12.0161218643188,1924.74456715584,"0",2,2,5
14,20,2,0,12.0171048641205,1924.74554920197,"Forced travel",0,0,5
14,20,1,0.66552209854126,2.01570796966553,1930.79467201233,"0",2,3,5
14,20,1,0.58881402015686,3.99894690513611,1932.77791118622,"0",0,6,5
14,20,1,0.426163911819458,5.999263048172,1934.77822709084,"0",1,7,5
14,20,1,0.696771860122681,8.01576685905457,1936.79473114014,"0",2,0,5
14,20,1,0.454473972320557,9.99920392036438,1938.77816820145,"0",1,7,5
14,20,1,0.360391855239868,11.999372959137,1940.77833819389,"0",1,3,5
14,20,1,0.537705183029175,13.9994139671326,1942.7783780098,"0",1,5,5
14,20,1,0,13.9996249675751,1942.77858901024,"Reward",0,0,5
14,8,0,0.253427982330322,0.273466825485229,1949.10163998604,"0",0,2,5
14,8,0,0,0.273612976074219,1949.1017870903,"Quit",0,0,5
14,4,0,0.449110984802246,0.450846195220947,1953.58030509949,"0",2,1,5
14,4,0,0,0.451801061630249,1953.58125901222,"Quit",0,0,5
14,4,0,0.297001123428345,0.302373170852661,1957.91524815559,"0",1,7,5
14,4,0,0,0.30251407623291,1957.91538906097,"Quit",0,0,5
14,8,0,0.423452854156494,0.428930044174194,1962.37434601784,"0",1,6,5
14,8,0,0,0.429073095321655,1962.37448906898,"Quit",0,0,5
14,8,0,0.419893026351929,0.422784805297852,1966.83538818359,"0",1,3,5
14,8,0,0,0.422932863235474,1966.83553600311,"Quit",0,0,5
14,4,0,0.315041065216064,0.31678581237793,1971.17978715897,"0",2,5,5
14,4,0,0,0.316987037658691,1971.17998814583,"Quit",0,0,5
14,20,1,0.812491893768311,1.99899291992188,1977.21197414398,"0",0,1,5
14,20,1,0.43962287902832,3.9989640712738,1979.21194505692,"0",0,1,5
14,20,1,0.56452202796936,6.01589703559875,1981.22887802124,"0",2,4,5
14,20,1,0.484086990356445,7.99907898902893,1983.21205997467,"0",1,5,5
14,20,1,0.544802904129028,9.99937891960144,1985.21236014366,"0",0,3,5
14,20,1,0.680922031402588,12.0161139965057,1987.22909498215,"0",2,6,5
14,20,1,0.801648855209351,13.9994730949402,1989.21245408058,"0",1,2,5
14,20,1,0,13.9996829032898,1989.21266317368,"Reward",0,0,5
14,20,2,0.832105875015259,2.01601600646973,1997.27902197838,"0",2,3,5
14,20,1,0.912606000900269,3.999342918396,1999.26234817505,"0",1,6,5
14,20,1,0.901081085205078,5.99962997436523,2001.26263618469,"0",0,4,5
14,20,1,0.509238004684448,7.99961590766907,2003.262622118,"0",1,5,5
14,20,1,0.797284126281738,10.0164330005646,2005.27943897247,"0",2,6,5
14,20,1,0.542484045028687,11.9994690418243,2007.26247501373,"0",1,6,5
14,20,1,0.747451066970825,13.9997720718384,2009.26277709007,"0",1,6,5
14,20,1,0,14.0010859966278,2009.26409101486,"Reward",0,0,5
14,8,0,0.88257884979248,0.9027419090271,2016.21647810936,"0",0,2,5
14,8,0,0,0.903427839279175,2016.21716403961,"Quit",0,0,5
14,4,0,0.380001068115234,0.386820793151855,2020.63306498528,"0",1,6,5
14,4,0,0,0.386972904205322,2020.63321805,"Quit",0,0,5
14,8,0,0.248569011688232,0.250322818756104,2024.91448116302,"0",2,1,5
14,8,0,0,0.251636028289795,2024.91579413414,"Quit",0,0,5
14,20,1,0.625046968460083,1.99893403053284,2030.94652700424,"0",0,7,5
14,20,1,0.748106002807617,4.01567506790161,2032.96326804161,"0",2,0,5
14,20,1,0.548141956329346,6.01585006713867,2034.96344304085,"0",2,1,5
14,20,1,0.60994291305542,7.99899411201477,2036.94658708572,"0",1,4,5
14,20,1,0.798208951950073,10.0157260894775,2038.96331906319,"0",2,2,5
14,20,1,0.439833879470825,11.998908996582,2040.94650197029,"0",1,1,5
14,20,1,0.552900791168213,13.9989759922028,2042.94656896591,"0",0,2,5
14,20,1,0,13.9991841316223,2042.94677615166,"Reward",0,0,5
14,4,0,1.5179271697998,1.5179660320282,2050.51559519768,"0",1,4,5
14,4,0,0,1.51886701583862,2050.51649618149,"Quit",0,0,5
14,20,1,0.581279039382935,2.01568484306335,2056.5635831356,"0",2,5,5
14,20,1,0.442917108535767,3.99938082695007,2058.54727911949,"0",0,2,5
14,20,1,0.539191007614136,5.99915504455566,2060.54705309868,"0",0,2,5
14,20,1,0.598787069320679,7.99921202659607,2062.54711008072,"0",1,7,5
14,20,1,0.66424298286438,10.0160000324249,2064.56389808655,"0",2,1,5
14,20,2,0.73122501373291,12.0157589912415,2066.56365609169,"0",2,5,5
14,20,1,0.626960039138794,13.9991009235382,2068.54699802399,"0",1,7,5
14,20,1,0,13.9993078708649,2068.54720401764,"Reward",0,0,5
14,4,0,0.449368000030518,0.451114892959595,2075.04886817932,"0",2,7,5
14,4,0,0,0.452016830444336,2075.04976916313,"Quit",0,0,5
14,8,0,1.1674690246582,1.16751003265381,2080.24924015999,"0",1,1,5
14,8,0,0,1.16770887374878,2080.24944019318,"Quit",0,0,5
14,8,0,0.483242988586426,0.486771821975708,2084.76856398582,"0",1,2,5
14,8,0,0,0.488030910491943,2084.76982307434,"Quit",0,0,5
14,8,0,0.44055700302124,0.444374084472656,2089.24264001846,"0",1,2,5
14,8,0,0,0.444510221481323,2089.24277615547,"Quit",0,0,5
14,20,1,0.6477370262146,2.01486110687256,2095.29690504074,"0",2,7,5
14,20,1,0.408718109130859,3.99935698509216,2097.28139996529,"0",0,0,5
14,20,2,0.380744934082031,5.9991180896759,2099.28116106987,"0",1,2,5
14,20,1,0.781032085418701,8.01610612869263,2101.29814910889,"0",2,1,5
14,20,1,0.635643005371094,10.0157279968262,2103.29777216911,"0",0,6,5
14,20,1,0.690999984741211,12.0153250694275,2105.29736709595,"0",0,6,5
14,20,2,0.997039079666138,14.0157930850983,2107.29783511162,"0",2,6,5
14,20,2,0,14.0159919261932,2107.29803419113,"Forced travel",0,0,5
14,4,0,0.474479913711548,0.495176076889038,2111.82764005661,"0",0,6,5
14,4,0,0,0.495313167572021,2111.82777810097,"Quit",0,0,5
14,20,1,0.557193994522095,1.99950814247131,2117.86474609375,"0",1,3,5
14,20,1,0.409828186035156,3.99981307983398,2119.86505103111,"0",1,5,5
14,20,1,0.518126010894775,5.99963593482971,2121.86487412453,"0",1,5,5
14,20,2,0.62689995765686,7.99988412857056,2123.86512207985,"0",1,0,5
14,20,1,0.531012058258057,9.99972915649414,2125.86496710777,"0",0,4,5
14,20,1,0.690661907196045,11.9997880458832,2127.86502599716,"0",0,7,5
14,20,1,0.898459911346436,14.0165331363678,2129.88177013397,"0",2,5,5
14,20,1,0,14.0178451538086,2129.88308215141,"Reward",0,0,5
14,4,0,0.325297832489014,0.345550060272217,2136.27769207954,"0",0,4,5
14,4,0,0,0.346204042434692,2136.27834510803,"Quit",0,0,5
14,20,1,0.548748970031738,2.01570606231689,2142.33176398277,"0",2,7,5
14,20,1,0.465265989303589,3.9994969367981,2144.315554142,"0",0,1,5
14,20,1,0.864394903182983,6.01598906517029,2146.33204603195,"0",2,1,5
14,20,1,0.720010995864868,7.99937295913696,2148.31543016434,"0",1,7,5
14,20,1,0.700077056884766,9.99957990646362,2150.31563711166,"0",1,5,5
14,20,1,0.897557973861694,12.0161650180817,2152.33222198486,"0",2,3,5
14,20,1,0.931267023086548,13.9992399215698,2154.31529712677,"0",1,5,5
14,20,1,0,13.9994490146637,2154.31550502777,"Reward",0,0,5
14,8,0,0.432652950286865,0.452543020248413,2160.81909298897,"0",0,6,5
14,8,0,0,0.452677011489868,2160.81922602654,"Quit",0,0,5
14,20,1,0.820899963378906,1.99936294555664,2166.84928917885,"0",1,3,5
14,20,1,0.482797861099243,3.99918699264526,2168.84911298752,"0",0,3,5
14,20,1,0.403223991394043,5.99900507926941,2170.84893107414,"0",0,2,5
14,20,1,0.498060941696167,8.01614904403687,2172.86607503891,"0",2,0,5
14,20,1,0.432548999786377,9.99952101707458,2174.84944701195,"0",0,2,5
14,20,1,0.606887102127075,11.9993669986725,2176.84929203987,"0",1,0,5
14,20,1,0.531111001968384,14.0160629749298,2178.8659889698,"0",2,4,5
14,20,1,0,14.0162711143494,2178.86619615555,"Reward",0,0,5
14,4,0,0.225587844848633,0.245373010635376,2185.1622440815,"0",0,7,5
14,4,0,0,0.245507001876831,2185.16237807274,"Quit",0,0,5
14,8,0,0.350299835205078,0.370146036148071,2189.57015013695,"0",0,0,5
14,8,0,0,0.370290994644165,2189.57029509544,"Quit",0,0,5
14,4,2,1.00003504753113,1.9989230632782,2195.59958004951,"0",1,2,5
14,4,2,1.00008296966553,3.99867296218872,2197.59932899475,"0",1,7,5
14,4,2,0,3.99882102012634,2197.59947609901,"Forced travel",0,0,5
14,8,0,0.277414083480835,0.297278881072998,2201.93133997917,"0",0,2,5
14,8,0,0,0.29741382598877,2201.93147516251,"Quit",0,0,5
14,8,0,0.26737904548645,0.272302865982056,2206.23997402191,"0",1,1,5
14,8,0,0,0.272443771362305,2206.24011516571,"Quit",0,0,5
2,8,1,0.66513204574585,2.00033211708069,2218.3501560688,"0",2,5,6
2,8,1,0,2.00054097175598,2218.3503639698,"Reward",0,0,6
2,4,1,0.56718897819519,1.99899291992188,2238.40023303032,"0",0,3,6
2,4,1,0,1.99920296669006,2238.40044212341,"Reward",0,0,6
2,20,1,0.598659992218018,1.9993109703064,2258.45078396797,"0",1,7,6
2,20,1,0,2.000333070755,2258.45180511475,"Reward",0,0,6
2,20,1,0.639937877655029,1.99878311157227,2278.50095009804,"0",0,5,6
2,20,1,0,1.99899005889893,2278.50115609169,"Reward",0,0,6
2,4,1,0.528199911117554,1.99946784973145,2298.55176615715,"0",1,5,6
2,4,1,0,2.00078392028809,2298.55308103561,"Reward",0,0,6
2,8,1,0.778327941894531,1.999027967453,2318.60194897652,"0",0,7,6
2,8,1,0,1.99998593330383,2318.60290598869,"Reward",0,0,6
2,4,1,0.51508617401123,1.99929189682007,2338.65249300003,"0",1,3,6
2,4,1,0,1.99949884414673,2338.65269899368,"Reward",0,0,6
2,4,1,0.552556037902832,1.99910593032837,2358.70268201828,"0",1,7,6
2,4,1,0,2.00010085105896,2358.70367598534,"Reward",0,0,6
2,8,1,0.717833995819092,1.99922609329224,2378.75307106972,"0",1,5,6
2,8,1,0,1.9994421005249,2378.75328612328,"Reward",0,0,6
2,20,1,0.618921995162964,1.99857187271118,2398.8031771183,"0",0,0,6
2,20,1,0,1.99879097938538,2398.80339503288,"Reward",0,0,6
2,8,2,1.00007700920105,1.99891996383667,2418.85381412506,"0",1,2,6
2,8,2,0,1.99988102912903,2418.85477399826,"Forced travel",0,0,6
2,20,1,0.932049989700317,2.01569294929504,2436.90417003632,"0",2,1,6
2,20,1,0,2.01667189598083,2436.90514802933,"Reward",0,0,6
2,8,1,0.91380786895752,2.01577496528625,2456.97125816345,"0",2,2,6
2,8,1,0,2.01598405838013,2456.97146606445,"Reward",0,0,6
2,4,1,0.588176012039185,1.9989709854126,2477.02135014534,"0",0,2,6
2,4,1,0,1.99917912483215,2477.02155709267,"Reward",0,0,6
2,8,1,0.514716863632202,1.99901795387268,2497.07187604904,"0",1,5,6
2,8,1,0,2.00000882148743,2497.0728662014,"Reward",0,0,6
2,20,1,0.948049068450928,1.99882483482361,2517.12213611603,"0",0,4,6
2,20,1,0,1.99906492233276,2517.12237405777,"Reward",0,0,6
2,20,1,0.954290866851807,1.99919486045837,2537.1728579998,"0",1,3,6
2,20,1,0,2.00016593933105,2537.17382907867,"Reward",0,0,6
2,4,1,0.599751949310303,2.01674294471741,2557.23972415924,"0",2,0,6
2,4,1,0,2.01806902885437,2557.24104809761,"Reward",0,0,6
2,20,1,0.547595977783203,1.99887299537659,2577.28984999657,"0",0,3,6
2,20,1,0,1.99908399581909,2577.29006004333,"Reward",0,0,6
2,8,1,0.571312189102173,1.999263048172,2597.34046006203,"0",0,3,6
2,8,1,0,1.9994740486145,2597.3406701088,"Reward",0,0,6
2,4,1,0.555136919021606,1.99900603294373,2617.39077997208,"0",0,2,6
2,4,1,0,1.99922108650208,2617.39099407196,"Reward",0,0,6
