"Handling","Reward","Choice","Task.RT","Choice.RT","Experiment.Time","Trial.Outcome","Task.Type","Task.Setup","Block"
2,20,1,0.901721000671387,1.99908995628357,9.05063796043396,"0",0,0,1
2,20,1,0,1.9994490146637,9.05099701881409,"Reward",0,0,1
2,4,1,0.793044090270996,1.99900817871094,29.1173269748688,"0",0,6,1
2,4,1,0,1.99922108650208,29.1175389289856,"Reward",0,0,1
2,4,1,0.660697937011719,1.9988739490509,49.1679470539093,"0",0,5,1
2,4,1,0,1.99987697601318,49.1689488887787,"Reward",0,0,1
2,8,1,0.813206911087036,1.99902415275574,69.2183229923248,"0",1,4,1
2,8,1,0,2.00034213066101,69.2196400165558,"Reward",0,0,1
2,8,1,0.946791887283325,2.01597285270691,89.2853920459747,"0",2,7,1
2,8,1,0,2.01618981361389,89.2856080532074,"Reward",0,0,1
2,20,1,0.984777927398682,1.99942588806152,109.336214065552,"0",1,1,1
2,20,1,0,2.00156188011169,109.338348865509,"Reward",0,0,1
2,4,1,0.777626991271973,1.99911689758301,129.386312007904,"0",1,5,1
2,4,1,0,1.99932909011841,129.386523008347,"Reward",0,0,1
2,20,1,0.732200860977173,1.99931192398071,149.436532020569,"0",1,0,1
2,20,1,0,2.0003399848938,149.437558889389,"Reward",0,0,1
2,4,1,0.695663928985596,1.99936389923096,169.503793001175,"0",1,6,1
2,4,1,0,2.00033211708069,169.504760026932,"Reward",0,0,1
2,20,1,0.708487987518311,1.99880599975586,189.55375790596,"0",0,6,1
2,20,1,0,1.99901509284973,189.553965091705,"Reward",0,0,1
2,8,1,0.817646026611328,1.99904084205627,209.604377031326,"0",1,2,1
2,8,1,0,1.99925184249878,209.604587078094,"Reward",0,0,1
2,8,1,0.676542043685913,1.99919295310974,229.654720067978,"0",1,2,1
2,8,1,0,2.00018191337585,229.65570807457,"Reward",0,0,1
2,20,1,0.981017112731934,2.01553297042847,249.721656084061,"0",2,0,1
2,20,1,0,2.01574206352234,249.721863985062,"Reward",0,0,1
2,8,1,0.828248977661133,1.99868702888489,269.771977901459,"0",0,6,1
2,8,1,0,1.99890899658203,269.772198915482,"Reward",0,0,1
2,4,1,0.948671817779541,2.01597595214844,289.839246034622,"0",2,4,1
2,4,1,0,2.01700711250305,289.840276002884,"Reward",0,0,1
2,20,1,0.765329837799072,2.01589512825012,309.906215906143,"0",2,4,1
2,20,1,0,2.01610517501831,309.906424999237,"Reward",0,0,1
2,4,1,0.829910039901733,1.99927997589111,329.956670999527,"0",0,7,1
2,4,1,0,2.00023889541626,329.957629919052,"Reward",0,0,1
2,8,2,0.995836973190308,2.01529407501221,350.023479938507,"0",2,0,1
2,8,2,0,2.01739501953125,350.025579929352,"Forced travel",0,0,1
2,20,1,0.593807935714722,1.99924182891846,368.057419061661,"0",0,4,1
2,20,1,0,1.99945092201233,368.057626962662,"Reward",0,0,1
2,8,1,0.624360084533691,1.99913692474365,388.107721090317,"0",1,7,1
2,8,1,0,1.99936199188232,388.107944965363,"Reward",0,0,1
2,4,1,0.684283018112183,1.99896502494812,408.158155918121,"0",1,3,1
2,4,1,0,1.99993491172791,408.159125089645,"Reward",0,0,1
10,8,1,0.932813882827759,2.01585602760315,434.892020940781,"0",2,2,2
10,8,1,0.689359903335571,3.99914503097534,436.875309944153,"0",0,0,2
10,8,1,0.609263896942139,5.99901485443115,438.875180006027,"0",0,0,2
10,8,1,0.710529088973999,7.99905896186829,440.875223875046,"0",0,2,2
10,8,1,0.693722009658813,9.9993269443512,442.875491857529,"0",1,5,2
10,8,1,0,9.99953603744507,442.875699996948,"Reward",0,0,2
10,8,1,0.529260158538818,1.99844408035278,454.925196886063,"0",1,5,2
10,8,1,0.675974130630493,4.0156991481781,456.942451953888,"0",0,7,2
10,8,1,0.797914981842041,6.01573204994202,458.942484855652,"0",2,1,2
10,8,1,0.648218870162964,8.01574897766113,460.94250202179,"0",2,7,2
10,8,1,0.710999965667725,9.99887108802795,462.925623893738,"0",1,2,2
10,8,1,0,9.99908113479614,462.925832986832,"Reward",0,0,2
10,4,1,0.798805952072144,2.01625204086304,474.993048906326,"0",2,1,2
10,4,1,0.639878988265991,3.99936604499817,476.976162910461,"0",1,2,2
10,4,1,0.491229057312012,5.99934911727905,478.976146936417,"0",1,3,2
10,4,1,0.606502056121826,7.99949097633362,480.97628903389,"0",0,5,2
10,4,1,0.450276136398315,9.99921011924744,482.976007938385,"0",0,3,2
10,4,1,0,9.99941897392273,482.976216077805,"Reward",0,0,2
10,20,1,0.660137891769409,1.99867796897888,495.026259899139,"0",0,5,2
10,20,1,0.627948999404907,3.99895405769348,497.026536941528,"0",0,2,2
10,20,1,0.609786033630371,5.99903011322021,499.026612997055,"0",1,4,2
10,20,1,0.714890956878662,8.01569104194641,501.043273925781,"0",2,7,2
10,20,1,0.593617916107178,9.99905705451965,503.026639938354,"0",0,7,2
10,20,1,0,10.0003728866577,503.027953863144,"Reward",0,0,2
10,4,1,0.592476844787598,1.99895691871643,515.076842069626,"0",1,7,2
10,4,1,0.648453950881958,4.01547694206238,517.093362092972,"0",2,0,2
10,4,1,0.570006847381592,5.99906396865845,519.076948881149,"0",0,5,2
10,4,1,0.614562034606934,8.01578998565674,521.093674898148,"0",2,4,2
10,4,1,0.470437049865723,9.99918103218079,523.077065944672,"0",1,7,2
10,4,1,0,10.0005049705505,523.078388929367,"Reward",0,0,2
10,20,1,0.607742071151733,1.99841094017029,535.127071857452,"0",0,2,2
10,20,1,0.642127990722656,3.99884295463562,537.127502918243,"0",1,6,2
10,20,1,0.551962852478027,5.9990029335022,539.127664089203,"0",1,2,2
10,20,1,0.560702085494995,7.99893593788147,541.127596855164,"0",1,3,2
10,20,1,0.646295070648193,10.0154409408569,543.144101858139,"0",2,1,2
10,20,1,0,10.0156509876251,543.144310951233,"Reward",0,0,2
10,4,1,0.532613039016724,1.99918007850647,555.194510936737,"0",1,7,2
10,4,1,0.501442193984985,3.99909210205078,557.194422006607,"0",0,0,2
10,4,1,0.479161024093628,5.9991090297699,559.194439888,"0",0,3,2
10,4,1,0.798447132110596,8.01576590538025,561.211097002029,"0",2,5,2
10,4,1,0.428094863891602,9.99914002418518,563.194470882416,"0",0,0,2
10,4,1,0,9.99934911727905,563.19467997551,"Reward",0,0,2
10,4,1,0.681751012802124,1.99942803382874,575.244915962219,"0",1,1,2
10,4,1,0.872374057769775,3.9992618560791,577.244750022888,"0",0,4,2
10,4,1,0.631633043289185,6.01594185829163,579.261430025101,"0",2,0,2
10,4,1,0.631004810333252,8.0161988735199,581.261686086655,"0",2,6,2
10,4,1,0.503062963485718,9.99932384490967,583.244812011719,"0",0,0,2
10,4,1,0,10.0006399154663,583.246126890182,"Reward",0,0,2
10,8,1,0.778487205505371,1.999027967453,595.295139074326,"0",0,7,2
10,8,1,0.579198122024536,3.99898099899292,597.29509305954,"0",1,6,2
10,8,1,0.553274154663086,5.99902701377869,599.295139074326,"0",1,0,2
10,8,1,0.781377077102661,8.01570200920105,601.311814069748,"0",2,6,2
10,8,1,0.548421859741211,10.01589012146,603.312001943588,"0",2,1,2
10,8,1,0,10.0172021389008,603.313313007355,"Reward",0,0,2
10,8,1,0.62912392616272,1.99893188476562,615.362125873566,"0",1,7,2
10,8,1,0.523223161697388,4.01565480232239,617.378849029541,"0",0,0,2
10,8,1,0.64708685874939,6.01566886901855,619.378862857819,"0",2,3,2
10,8,1,0.715088844299316,8.01588082313538,621.379075050354,"0",2,2,2
10,8,1,0.798277854919434,10.0157449245453,623.378938913345,"0",2,3,2
10,8,1,0,10.0159518718719,623.379144906998,"Reward",0,0,2
10,20,1,0.503612041473389,1.9989869594574,635.42914390564,"0",1,5,2
10,20,1,0.680186033248901,4.01583385467529,637.445991039276,"0",2,1,2
10,20,1,0.638362884521484,5.99921798706055,639.429374933243,"0",1,1,2
10,20,1,0.731613874435425,7.99934601783752,641.429502010345,"0",1,7,2
10,20,1,0.656048059463501,9.99922490119934,643.4293820858,"0",0,2,2
10,20,1,0,9.99943399429321,643.429589986801,"Reward",0,0,2
10,20,1,0.557493925094604,1.9991729259491,655.479543924332,"0",1,3,2
10,20,1,0.609080076217651,3.99905300140381,657.479423046112,"0",0,2,2
10,20,1,0.672050952911377,5.99928784370422,659.479659080505,"0",0,6,2
10,20,1,0.814073085784912,8.01602482795715,661.496394872665,"0",2,3,2
10,20,2,0.996925115585327,10.0160419940948,663.496412992477,"0",2,0,2
10,20,1,0,10.01735496521,663.497725009918,"Reward",0,0,2
10,4,1,0.677397966384888,1.99867606163025,675.546643018723,"0",1,1,2
10,4,1,0.467850923538208,3.99894785881042,677.546916007996,"0",1,4,2
10,4,1,0.454278945922852,5.99853205680847,679.546499967575,"0",0,0,2
10,4,1,0.421653032302856,7.9985659122467,681.546534061432,"0",0,0,2
10,4,1,0.661834001541138,9.99916100502014,683.547128915787,"0",1,0,2
10,4,1,0,9.99937105178833,683.547338008881,"Reward",0,0,2
10,20,1,0.603744983673096,1.99888396263123,695.597015857697,"0",1,3,2
10,20,1,0.567068099975586,3.99890899658203,697.597040891647,"0",1,4,2
10,20,1,0.47509503364563,5.99914002418518,699.59727191925,"0",1,3,2
10,20,1,0.65185284614563,7.99911999702454,701.59725189209,"0",0,6,2
10,20,1,0.578323841094971,9.99900603294373,703.597136974335,"0",1,7,2
10,20,1,0,9.99921703338623,703.597347974777,"Reward",0,0,2
10,8,1,0.653617858886719,1.99924612045288,715.64741897583,"0",1,6,2
10,8,1,0.571686983108521,3.99905896186829,717.647230863571,"0",0,3,2
10,8,1,0.519151926040649,5.99905490875244,719.647228002548,"0",0,4,2
10,8,1,0.603275060653687,7.99935698509216,721.647528886795,"0",0,1,2
10,8,1,0.615573167800903,9.99961590766907,723.647789001465,"0",1,5,2
10,8,1,0,9.99982309341431,723.647994995117,"Reward",0,0,2
10,4,1,0.97489595413208,1.99900603294373,735.698006868362,"0",1,4,2
10,4,1,0.730924129486084,4.01563501358032,737.714636087418,"0",2,3,2
10,4,1,0.864950895309448,6.01596808433533,739.714968919754,"0",2,6,2
10,4,1,0.639822006225586,7.99887204170227,741.697872877121,"0",0,3,2
10,4,1,0.538735151290894,9.99958610534668,743.698586940765,"0",1,7,2
10,4,1,0,10.0009009838104,743.699900865555,"Reward",0,0,2
10,8,1,0.609323978424072,1.9994170665741,755.748175859451,"0",1,1,2
10,8,1,0.561845064163208,3.99945497512817,757.74821305275,"0",1,2,2
10,8,1,0.524625062942505,5.99928617477417,759.748044967651,"0",0,4,2
10,8,1,0.731943130493164,8.01622009277344,761.764978885651,"0",2,3,2
10,8,1,0.590615034103394,9.99959301948547,763.748352050781,"0",1,1,2
10,8,1,0,10.0009260177612,763.749683856964,"Reward",0,0,2
10,20,1,0.60902214050293,1.99966907501221,775.799032926559,"0",1,1,2
10,20,1,0.496326923370361,3.99925208091736,777.798615932465,"0",0,7,2
10,20,1,0.714441061019897,6.01594305038452,779.815305948257,"0",2,0,2
10,20,1,0.626206159591675,7.9994490146637,781.798812866211,"0",1,2,2
10,20,1,0.54065990447998,9.99942302703857,783.798786878586,"0",1,2,2
10,20,1,0,9.9996349811554,783.798997879028,"Reward",0,0,2
10,20,1,0.803702831268311,2.01593112945557,795.865859985352,"0",0,4,2
10,20,1,0.545143842697144,3.99931311607361,797.84924197197,"0",0,1,2
10,20,1,0.667223930358887,5.99889707565308,799.848825931549,"0",0,2,2
10,20,1,0.880354166030884,8.01601910591125,801.865947008133,"0",2,2,2
10,20,1,0.560638904571533,9.99919891357422,803.849127054214,"0",0,0,2
10,20,1,0,10.0005149841309,803.850442886353,"Reward",0,0,2
10,8,2,0.996721029281616,2.01496601104736,815.915740013123,"0",2,3,2
10,8,1,0.658597946166992,3.99861311912537,817.899386882782,"0",1,0,2
10,8,1,0.548074007034302,5.9986720085144,819.89944601059,"0",0,3,2
10,8,1,0.963701963424683,8.01535820960999,821.916131973267,"0",2,3,2
10,8,1,0.543515920639038,9.99856305122375,823.899337053299,"0",1,5,2
10,8,1,0,9.99913620948792,823.89990901947,"Reward",0,0,2
10,8,1,0.647791147232056,1.99890279769897,835.949593067169,"0",0,2,2
10,8,1,0.64782190322876,3.99900698661804,837.949697971344,"0",1,1,2
10,8,1,0.577333927154541,5.99912691116333,839.949817895889,"0",0,6,2
10,8,1,0.469974994659424,7.99891495704651,841.949604988098,"0",0,5,2
10,8,1,0.525508880615234,9.99940490722656,843.950095891953,"0",1,5,2
10,8,1,0,9.99961495399475,843.950304985046,"Reward",0,0,2
14,4,1,0.629961967468262,1.99975800514221,862.116991996765,"0",0,7,3
14,4,1,0.780802965164185,4.01635384559631,864.133588075638,"0",2,2,3
14,4,1,0.599821805953979,5.99992799758911,866.117161989212,"0",1,3,3
14,4,1,0.508219957351685,7.99994277954102,868.117177009583,"0",0,0,3
14,4,1,0.557659149169922,9.99942684173584,870.116661071777,"0",0,7,3
14,4,1,0.402772903442383,11.9998757839203,872.117110013962,"0",0,7,3
14,4,1,0.747982025146484,14.0169858932495,874.134219884872,"0",2,7,3
14,4,1,0,14.0171959400177,874.134428977966,"Reward",0,0,3
14,20,1,0.599384069442749,1.99908399581909,882.183948993683,"0",1,6,3
14,20,1,0.57508397102356,3.99910283088684,884.183966875076,"0",1,0,3
14,20,1,0.556274890899658,5.99916195869446,886.184026002884,"0",1,6,3
14,20,1,0.500048160552979,7.99920678138733,888.18407201767,"0",1,1,3
14,20,1,0.797938823699951,10.0159468650818,890.200811862946,"0",2,6,3
14,20,1,0.481875896453857,11.9994390010834,892.184303998947,"0",0,3,3
14,20,1,0.581369876861572,14.0159869194031,894.200850963593,"0",0,5,3
14,20,1,0,14.0161979198456,894.201061964035,"Reward",0,0,3
14,8,1,0.565690040588379,1.99890279769897,902.250993013382,"0",0,0,3
14,8,1,0.423641920089722,3.99898195266724,904.251070976257,"0",0,2,3
14,8,1,0.780519008636475,6.01564478874207,906.267735004425,"0",2,7,3
14,8,1,0.764533996582031,8.01594090461731,908.268030881882,"0",2,0,3
14,8,1,0.700177907943726,9.99922895431519,910.25131893158,"0",0,7,3
14,8,1,0.896881103515625,12.0158369541168,912.267926931381,"0",2,3,3
14,8,1,0.698539018630981,14.0158128738403,914.26790189743,"0",2,3,3
14,8,1,0,14.0167999267578,914.268888950348,"Reward",0,0,3
14,4,1,0.590354919433594,1.99926996231079,922.318064928055,"0",0,6,3
14,4,1,0.78188419342041,4.01593899726868,924.334733963013,"0",2,5,3
14,4,1,0.764135122299194,6.0159900188446,926.334784030914,"0",2,3,3
14,4,1,0.614527940750122,7.99946594238281,928.318260908127,"0",1,3,3
14,4,1,0.737833976745605,9.99941682815552,930.318212032318,"0",1,1,3
14,4,1,0.574150085449219,11.9995138645172,932.31830906868,"0",0,2,3
14,4,1,0.681460857391357,14.0161399841309,934.334934949875,"0",2,4,3
14,4,1,0,14.0163478851318,934.335141897202,"Reward",0,0,3
14,8,1,0.485656023025513,1.99912714958191,942.385077953339,"0",1,5,3
14,8,1,0.503388166427612,3.99920296669006,944.385154008865,"0",1,3,3
14,8,1,0.591781854629517,5.99925398826599,946.385205030441,"0",0,7,3
14,8,1,0.58779501914978,7.99933910369873,948.385289907455,"0",0,1,3
14,8,1,0.663894176483154,9.99929809570312,950.38524889946,"0",1,1,3
14,8,1,0.609870910644531,11.9991540908813,952.385104894638,"0",0,2,3
14,8,1,0.516619205474854,13.9994029998779,954.385354042053,"0",1,2,3
14,8,1,0,13.9996120929718,954.385561943054,"Reward",0,0,3
14,20,1,0.495352983474731,1.99910712242126,962.435560941696,"0",0,2,3
14,20,1,0.470037937164307,3.99833106994629,964.434783935547,"0",0,0,3
14,20,1,0.4844970703125,5.99909996986389,966.435553073883,"0",1,0,3
14,20,1,0.424837112426758,7.99914908409119,968.435602903366,"0",1,0,3
14,20,1,0.566695928573608,9.99857211112976,970.435025930405,"0",0,7,3
14,20,1,0.569301128387451,11.9985001087189,972.434952974319,"0",1,2,3
14,20,1,0.446510076522827,13.9987399578094,974.435193061829,"0",0,0,3
14,20,1,0,13.9988951683044,974.435347080231,"Reward",0,0,3
14,4,1,0.516570091247559,1.99910497665405,982.485888004303,"0",1,1,3
14,4,1,0.5170738697052,3.99921011924744,984.485992908478,"0",1,4,3
14,4,1,0.450416088104248,5.99915099143982,986.485934019089,"0",1,1,3
14,4,1,0.400223016738892,7.99924612045288,988.486028909683,"0",1,0,3
14,4,1,0.538248062133789,9.99929308891296,990.486075878143,"0",0,1,3
14,4,1,0.498079061508179,11.9995710849762,992.486353874207,"0",1,2,3
14,4,1,0.490490913391113,13.9993422031403,994.486124992371,"0",1,4,3
14,4,1,0,13.9995520114899,994.486334085464,"Reward",0,0,3
14,20,1,0.715218067169189,2.01530718803406,1002.55265498161,"0",2,0,3
14,20,1,0.801270961761475,3.99895620346069,1004.53630399704,"0",0,5,3
14,20,1,0.657148122787476,5.99904298782349,1006.53639101982,"0",1,4,3
14,20,1,0.500746965408325,7.99928498268127,1008.53663301468,"0",1,7,3
14,20,1,0.697344064712524,10.01580119133,1010.55314803123,"0",2,0,3
14,20,1,0.771379947662354,11.9990971088409,1012.53644490242,"0",0,7,3
14,20,1,0.961739063262939,13.9989521503448,1014.53629994392,"0",0,4,3
14,20,1,0,13.9991610050201,1014.53650808334,"Reward",0,0,3
14,8,1,0.783414125442505,1.99902200698853,1022.58662891388,"0",0,7,3
14,8,1,0.66500186920166,4.0158109664917,1024.60341787338,"0",2,7,3
14,8,1,0.646596908569336,5.99918794631958,1026.58679509163,"0",1,2,3
14,8,1,0.533721923828125,7.99942803382874,1028.58703494072,"0",1,6,3
14,8,1,0.550600051879883,9.99928307533264,1030.58688998222,"0",0,1,3
14,8,1,0.597774982452393,11.9992730617523,1032.58687901497,"0",0,5,3
14,8,1,0.521094083786011,13.9993209838867,1034.5869269371,"0",0,6,3
14,8,1,0,14.0003199577332,1034.58792686462,"Reward",0,0,3
14,8,1,0.847757816314697,2.01556301116943,1042.65366792679,"0",2,1,3
14,8,1,0.865164041519165,4.01570105552673,1044.65380597115,"0",2,7,3
14,8,1,0.604472875595093,5.99926590919495,1046.63736987114,"0",0,0,3
14,8,1,0.848196983337402,8.01573991775513,1048.65384507179,"0",2,7,3
14,8,1,0.545898199081421,9.9990918636322,1050.63719701767,"0",0,7,3
14,8,1,0.582267999649048,11.9991710186005,1052.63727593422,"0",1,3,3
14,8,1,0.664849042892456,14.0158660411835,1054.6539709568,"0",2,1,3
14,8,1,0,14.016077041626,1054.65418100357,"Reward",0,0,3
14,20,1,0.56129002571106,1.99921989440918,1062.70409989357,"0",1,2,3
14,20,1,0.698467969894409,4.01605296134949,1064.72093296051,"0",2,4,3
14,20,1,0.633121013641357,5.99908399581909,1066.70396399498,"0",1,0,3
14,20,1,0.831889867782593,8.01595091819763,1068.72083091736,"0",2,4,3
14,20,1,0.781850814819336,10.0160069465637,1070.7208878994,"0",2,1,3
14,20,1,0.847450971603394,12.0162668228149,1072.7211458683,"0",2,2,3
14,20,1,0.670063018798828,13.999226808548,1074.70410704613,"0",1,6,3
14,20,1,0,13.9994368553162,1074.7043159008,"Reward",0,0,3
14,4,1,0.849000930786133,2.01601600646973,1082.77135586739,"0",2,3,3
14,4,1,0.666768074035645,3.99920010566711,1084.75453996658,"0",1,5,3
14,4,1,0.6975998878479,6.01587295532227,1086.77121305466,"0",2,4,3
14,4,1,0.998280048370361,7.9990611076355,1088.75440096855,"0",2,5,3
14,4,1,0.565122127532959,9.99950909614563,1090.75484800339,"0",1,4,3
14,4,1,0.446639060974121,11.9995439052582,1092.75488400459,"0",1,4,3
14,4,1,0.548314094543457,14.0160579681396,1094.77139806747,"0",2,1,3
14,4,1,0,14.0170509815216,1094.77238988876,"Reward",0,0,3
14,8,1,0.569882154464722,1.99965000152588,1102.82144093513,"0",1,0,3
14,8,1,0.714236974716187,4.0161828994751,1104.8379740715,"0",2,6,3
14,8,2,0.84844183921814,6.01637601852417,1106.83816695213,"0",2,6,3
14,8,2,0.996888875961304,8.0165798664093,1108.83837103844,"0",2,4,3
14,8,2,0,8.01678085327148,1108.83857107162,"Forced travel",0,0,3
14,20,1,0.865722894668579,2.01610994338989,1114.8884909153,"0",2,5,3
14,20,1,0.544604063034058,3.99963879585266,1116.87202000618,"0",0,0,3
14,20,1,0.511404991149902,5.99944686889648,1118.87182807922,"0",1,3,3
14,20,1,0.847580909729004,8.01622080802917,1120.88860201836,"0",2,3,3
14,20,1,0.514402151107788,9.99936389923096,1122.87174487114,"0",1,3,3
14,20,2,0.996716976165771,12.0162019729614,1124.88858294487,"0",2,6,3
14,20,1,0.604246854782104,13.9993109703064,1126.87169098854,"0",1,2,3
14,20,1,0,13.9995260238647,1126.8719060421,"Reward",0,0,3
14,20,1,0.778753995895386,1.99905109405518,1134.92216491699,"0",1,5,3
14,20,1,0.504518032073975,3.99908804893494,1136.92220187187,"0",1,2,3
14,20,1,0.629975080490112,6.01571011543274,1138.9388229847,"0",2,0,3
14,20,1,0.660264015197754,7.99911117553711,1140.92222499847,"0",0,5,3
14,20,1,0.980146884918213,10.015643119812,1142.93875694275,"0",2,6,3
14,20,1,0.512048959732056,11.9992980957031,1144.92241191864,"0",1,7,3
14,20,1,0.676388025283813,13.9993059635162,1146.92242002487,"0",0,7,3
14,20,1,0,13.9995210170746,1146.92263388634,"Reward",0,0,3
14,4,2,1.00006914138794,1.9990119934082,1154.97256708145,"0",1,6,3
14,4,2,0.794847965240479,3.99865102767944,1156.9722058773,"0",0,2,3
14,4,2,0,3.99885892868042,1156.97241306305,"Forced travel",0,0,3
14,8,1,0.589322090148926,1.99871492385864,1163.00569200516,"0",0,2,3
14,8,1,0.493216991424561,3.99916100502014,1165.00613808632,"0",1,4,3
14,8,1,0.53021502494812,5.99824404716492,1167.00522089005,"0",1,0,3
14,8,1,0.511194944381714,7.99924206733704,1169.00621891022,"0",0,0,3
14,8,1,0.447592973709106,9.99925398826599,1171.00623106956,"0",1,5,3
14,8,1,0.714932203292847,12.0159080028534,1173.02288508415,"0",2,6,3
14,8,1,0.674603939056396,13.9992740154266,1175.00624990463,"0",1,2,3
14,8,1,0,13.9994850158691,1175.00646090508,"Reward",0,0,3
14,4,1,0.715211868286133,1.99927496910095,1183.05670905113,"0",1,7,3
14,4,1,0.731165885925293,4.01569294929504,1185.07312703133,"0",2,6,3
14,4,1,0.596480846405029,5.99905705451965,1187.05648994446,"0",0,5,3
14,4,1,0.677055835723877,7.99958610534668,1189.05702090263,"0",1,0,3
14,4,2,0.897073030471802,10.0158751010895,1191.0733089447,"0",2,6,3
14,4,2,0.996083974838257,12.0158669948578,1193.07330107689,"0",2,4,3
14,4,2,0,12.0160710811615,1193.0735039711,"Forced travel",0,0,3
14,20,1,0.764745950698853,2.01547479629517,1199.12324500084,"0",2,2,3
14,20,1,0.491250038146973,3.99906492233276,1201.10683393478,"0",1,3,3
14,20,1,0.641432046890259,5.99915790557861,1203.1069278717,"0",0,4,3
14,20,1,0.467209100723267,7.99869585037231,1205.10646605492,"0",0,2,3
14,20,1,0.493086099624634,9.99914598464966,1207.1069149971,"0",0,7,3
14,20,1,0.491322994232178,11.9991779327393,1209.10694789886,"0",1,4,3
14,20,1,0.567831039428711,13.9992408752441,1211.10701107979,"0",1,6,3
14,20,1,0,13.9994518756866,1211.10722088814,"Reward",0,0,3
14,4,1,0.681820869445801,2.01572299003601,1219.17379498482,"0",2,5,3
14,4,1,0.614392995834351,4.01580190658569,1221.17387390137,"0",2,0,3
14,4,1,0.763251066207886,6.01583099365234,1223.17390298843,"0",2,6,3
14,4,1,0.679171085357666,7.99919676780701,1225.15726900101,"0",1,5,3
14,4,1,0.558900833129883,9.99917984008789,1227.15725207329,"0",1,2,3
14,4,1,0.558763980865479,11.9992499351501,1229.15732192993,"0",1,2,3
14,4,1,0.620895862579346,13.9992978572845,1231.15737009048,"0",0,6,3
14,4,1,0,13.9995110034943,1231.1575820446,"Reward",0,0,3
14,20,1,0.898654937744141,2.01572704315186,1239.22415995598,"0",2,3,3
14,20,1,0.560137987136841,3.99936604499817,1241.20779895782,"0",0,5,3
14,20,1,0.88158106803894,6.0155930519104,1243.22402596474,"0",2,0,3
14,20,2,0.9151771068573,8.01586508750916,1245.22429800034,"0",2,3,3
14,20,2,0.996409177780151,10.0157039165497,1247.22413706779,"0",2,4,3
14,20,2,0,10.0159070491791,1247.22433900833,"Forced travel",0,0,3
14,8,1,0.820425987243652,1.99916386604309,1253.25777506828,"0",1,2,3
14,8,1,0.654078960418701,3.9990508556366,1255.25766205788,"0",0,7,3
14,8,1,0.639673948287964,5.99935388565063,1257.25796508789,"0",0,1,3
14,8,1,0.53146505355835,7.99895095825195,1259.25756192207,"0",0,3,3
14,8,1,0.730407953262329,9.9991660118103,1261.25777697563,"0",0,0,3
14,8,1,0.848103046417236,12.0163128376007,1263.27492403984,"0",2,2,3
14,8,1,0.593092918395996,13.9996449947357,1265.25825500488,"0",0,2,3
14,8,1,0,13.9998509883881,1265.25846099854,"Reward",0,0,3
14,4,1,0.588747024536133,1.9989550113678,1273.30820608139,"0",0,2,3
14,4,1,0.781744956970215,4.01561307907104,1275.32486391068,"0",2,7,3
14,4,1,0.782201051712036,6.01572394371033,1277.32497501373,"0",0,3,3
14,4,1,0.646536111831665,7.9992949962616,1279.30854487419,"0",0,7,3
14,4,2,1.00005197525024,9.99920201301575,1281.30845189095,"0",0,4,3
14,4,1,0.520120143890381,11.9989449977875,1283.30819606781,"0",0,2,3
14,4,1,0.480654001235962,13.99915599823,1285.30840706825,"0",0,6,3
14,4,1,0,13.9993660449982,1285.30861592293,"Reward",0,0,3
2,20,1,0.595563888549805,1.99974417686462,1640.23839998245,"0",1,1,4
2,20,1,0,2.00187301635742,1640.24052786827,"Reward",0,0,4
2,8,1,0.524851083755493,1.99926090240479,1660.28881788254,"0",1,7,4
2,8,1,0,1.99948191642761,1660.28903794289,"Reward",0,0,4
2,4,1,0.831967115402222,2.0157368183136,1680.35572004318,"0",2,4,4
2,4,1,0,2.01677584648132,1680.35675787926,"Reward",0,0,4
2,4,1,0.776888847351074,1.99907207489014,1700.40604686737,"0",0,0,4
2,4,1,0,2.00011014938354,1700.40708398819,"Reward",0,0,4
2,20,1,0.680605888366699,2.01564908027649,1720.47306489944,"0",2,7,4
2,20,1,0,2.01585817337036,1720.47327303886,"Reward",0,0,4
2,8,1,0.772124052047729,1.99883794784546,1740.52324485779,"0",0,3,4
2,8,1,0,1.99904799461365,1740.52345490456,"Reward",0,0,4
2,20,1,0.891803026199341,1.99887299537659,1760.57382202148,"0",1,0,4
2,20,1,0,1.99989008903503,1760.57483792305,"Reward",0,0,4
2,4,1,0.797992944717407,2.01615595817566,1780.64094686508,"0",2,3,4
2,4,1,0,2.01748204231262,1780.64227199554,"Reward",0,0,4
2,4,1,0.918634176254272,1.99947190284729,1800.69149589539,"0",1,2,4
2,4,1,0,1.99967980384827,1800.69170308113,"Reward",0,0,4
2,8,1,0.764042139053345,2.0156090259552,1820.7581679821,"0",2,5,4
2,8,1,0,2.01662588119507,1820.75918388367,"Reward",0,0,4
2,8,2,1.00004816055298,1.99929904937744,1840.80894589424,"0",1,2,4
2,8,2,0,1.99950003623962,1840.80914592743,"Forced travel",0,0,4
2,20,1,0.566601991653442,1.99921894073486,1858.8426759243,"0",1,1,4
2,20,1,0,2.00133299827576,1858.84478902817,"Reward",0,0,4
2,8,1,0.561782836914062,1.99932217597961,1878.89285898209,"0",1,6,4
2,8,1,0,2.00033807754517,1878.89387392998,"Reward",0,0,4
2,4,1,0.880716800689697,2.01537418365479,1898.95964598656,"0",2,0,4
2,4,1,0,2.01668810844421,1898.96095895767,"Reward",0,0,4
2,8,1,0.631097078323364,1.99873208999634,1919.01006293297,"0",0,5,4
2,8,1,0,1.998948097229,1919.01027703285,"Reward",0,0,4
2,20,2,0.832134008407593,2.01584601402283,1939.07722496986,"0",2,6,4
2,20,2,0,2.01691794395447,1939.07829594612,"Forced travel",0,0,4
2,4,1,0.652498006820679,1.99901008605957,1957.11077690125,"0",0,3,4
2,4,1,0,1.99921798706055,1957.11098408699,"Reward",0,0,4
2,20,1,0.782241106033325,2.01612782478333,1977.17816901207,"0",2,4,4
2,20,1,0,2.01719498634338,1977.17923498154,"Reward",0,0,4
2,4,1,0.571868896484375,1.99899506568909,1997.22845292091,"0",0,0,4
2,4,1,0,1.99920296669006,1997.22865986824,"Reward",0,0,4
2,4,1,0.66513204574585,2.01547789573669,2017.29531788826,"0",2,1,4
2,4,1,0,2.01569080352783,2017.2955300808,"Reward",0,0,4
2,8,1,0.66736912727356,1.99921298027039,2037.34592700005,"0",1,1,4
2,8,1,0,2.00026988983154,2037.34698390961,"Reward",0,0,4
10,4,1,0.93117094039917,2.01542186737061,2063.57986307144,"0",2,4,5
10,4,1,0.681212902069092,4.01502895355225,2065.5794699192,"0",2,5,5
10,4,1,0.647344827651978,6.01545882225037,2067.57990002632,"0",2,4,5
10,4,1,0.628772020339966,7.99879693984985,2069.5632379055,"0",1,6,5
10,4,1,0.663532972335815,10.0156888961792,2071.58012986183,"0",2,0,5
10,4,1,0,10.0158989429474,2071.58033895493,"Reward",0,0,5
10,8,1,0.549548149108887,2.01649212837219,2083.64680194855,"0",2,2,5
10,8,1,0.603224992752075,4.01651215553284,2085.64682197571,"0",0,1,5
10,8,1,0.664351940155029,5.99992394447327,2087.63023400307,"0",2,6,5
10,8,1,0.527872085571289,8.00039505958557,2089.63070487976,"0",1,5,5
10,8,1,0.557929992675781,9.99998712539673,2091.63029694557,"0",1,1,5
10,8,1,0,10.000195980072,2091.63050508499,"Reward",0,0,5
10,20,1,0.77398681640625,1.99868321418762,2103.68029999733,"0",0,4,5
10,20,1,0.576092004776001,3.99896812438965,2105.68058395386,"0",1,7,5
10,20,1,0.666868925094604,5.9987850189209,2107.68040204048,"0",0,1,5
10,20,1,0.486560821533203,7.9990770816803,2109.68069386482,"0",0,5,5
10,20,1,0.399138927459717,9.99911713600159,2111.68073391914,"0",0,0,5
10,20,1,0,9.99932718276978,2111.68094301224,"Reward",0,0,5
10,20,1,0.542146921157837,1.99892115592957,2123.73095393181,"0",1,2,5
10,20,1,0.620596170425415,3.99899220466614,2125.73102498055,"0",0,2,5
10,20,1,0.898087024688721,6.01595211029053,2127.7479839325,"0",2,6,5
10,20,1,0.539722919464111,7.99907112121582,2129.73110389709,"0",1,2,5
10,20,1,0.831984996795654,10.0157361030579,2131.74776887894,"0",2,4,5
10,20,1,0,10.0159451961517,2131.74797701836,"Reward",0,0,5
10,8,1,0.898435115814209,2.01563620567322,2143.81464099884,"0",2,6,5
10,8,1,0.764973163604736,4.01554203033447,2145.81454706192,"0",2,2,5
10,8,1,0.514897108078003,5.99914216995239,2147.79814696312,"0",1,6,5
10,8,1,0.542078971862793,7.9988100528717,2149.79781508446,"0",0,6,5
10,8,1,0.549432992935181,9.9991660118103,2151.79817008972,"0",1,3,5
10,8,1,0,9.99937510490417,2151.7983789444,"Reward",0,0,5
10,4,1,0.613248109817505,1.99965405464172,2163.84839606285,"0",1,0,5
10,4,1,0.61730694770813,3.99970722198486,2165.84844899178,"0",1,3,5
10,4,1,0.797184944152832,6.01621603965759,2167.86495804787,"0",2,7,5
10,4,1,0.56632399559021,7.99977707862854,2169.84851908684,"0",0,2,5
10,4,1,0.681784868240356,10.0165431499481,2171.86528396606,"0",2,3,5
10,4,1,0,10.0167531967163,2171.86549401283,"Reward",0,0,5
10,20,2,0.997257947921753,2.01576399803162,2183.93218994141,"0",2,4,5
10,20,1,0.61383581161499,3.99883794784546,2185.91526389122,"0",1,0,5
10,20,1,0.428829908370972,5.99936103820801,2187.91578698158,"0",1,7,5
10,20,2,0.996590852737427,8.01579785346985,2189.93222403526,"0",2,4,5
10,20,2,0,8.01600003242493,2189.93242502213,"Forced travel",0,0,5
10,20,1,0.585721015930176,1.99845719337463,2199.96560096741,"0",0,7,5
10,20,1,0.530580997467041,3.99871110916138,2201.96585392952,"0",0,6,5
10,20,1,0.509243011474609,5.99897503852844,2203.96611785889,"0",1,5,5
10,20,1,0.714745044708252,8.01523804664612,2205.9823820591,"0",2,4,5
10,20,1,0.741230010986328,9.99878311157227,2207.9659268856,"0",0,4,5
10,20,1,0,10.0008981227875,2207.96804094315,"Reward",0,0,5
10,8,1,0.565055847167969,1.99890899658203,2220.01594686508,"0",0,7,5
10,8,1,0.681627035140991,4.01614809036255,2222.03318595886,"0",2,7,5
10,8,1,0.492039918899536,5.99918007850647,2224.01621794701,"0",0,6,5
10,8,1,0.66512393951416,8.01551198959351,2226.03254985809,"0",2,6,5
10,8,1,0.814871788024902,10.0159959793091,2228.03303408623,"0",2,6,5
10,8,1,0,10.0162069797516,2228.0332429409,"Reward",0,0,5
10,8,1,0.747874021530151,2.01505303382874,2240.09932994843,"0",2,0,5
10,8,1,0.577459812164307,3.99883103370667,2242.0831079483,"0",1,3,5
10,8,1,0.609534025192261,5.99910092353821,2244.08337688446,"0",1,1,5
10,8,1,0.613535165786743,8.01557993888855,2246.0998570919,"0",2,1,5
10,8,1,0.731091976165771,10.0158350467682,2248.10011196136,"0",2,4,5
10,8,1,0,10.0160460472107,2248.10032200813,"Reward",0,0,5
10,4,1,0.557600975036621,1.99903297424316,2260.15039587021,"0",0,7,5
10,4,1,0.555608987808228,3.99897694587708,2262.15034008026,"0",1,7,5
10,4,1,0.698081970214844,6.0156569480896,2264.16702008247,"0",2,6,5
10,4,1,0.797482967376709,8.01597690582275,2266.16734004021,"0",2,2,5
10,4,1,0.538690805435181,10.0158560276031,2268.16721892357,"0",0,0,5
10,4,1,0,10.0168669223785,2268.16822886467,"Reward",0,0,5
10,4,1,0.694576025009155,1.99862813949585,2280.21712398529,"0",0,0,5
10,4,1,0.664222955703735,4.01579594612122,2282.23429107666,"0",2,0,5
10,4,1,0.470083951950073,5.99893808364868,2284.21743392944,"0",0,7,5
10,4,1,0.470019102096558,7.99849796295166,2286.21699285507,"0",0,2,5
10,4,1,0.458768129348755,9.99915313720703,2288.21764802933,"0",0,5,5
10,4,1,0,9.9993679523468,2288.21786308289,"Reward",0,0,5
10,4,1,0.761658906936646,1.99869704246521,2300.26745200157,"0",0,4,5
10,4,1,0.680346012115479,4.01596093177795,2302.28471708298,"0",2,1,5
10,4,1,0.781400918960571,6.01574802398682,2304.28450393677,"0",2,2,5
10,4,1,0.584758996963501,7.9991409778595,2306.26789689064,"0",1,1,5
10,4,1,0.510218858718872,9.99924492835999,2308.26800107956,"0",0,6,5
10,4,1,0,9.99945688247681,2308.26821208,"Reward",0,0,5
10,20,1,0.665807008743286,2.01590991020203,2320.33486485481,"0",2,0,5
10,20,1,0.509929895401001,3.99925708770752,2322.31821298599,"0",0,4,5
10,20,1,0.730671882629395,6.01610088348389,2324.33505702019,"0",2,0,5
10,20,1,0.582302808761597,7.99941992759705,2326.3183760643,"0",1,5,5
10,20,1,0.48819899559021,9.99939203262329,2328.31834793091,"0",0,6,5
10,20,1,0,10.0003809928894,2328.31933498383,"Reward",0,0,5
10,4,1,0.732319116592407,2.01591110229492,2340.38515496254,"0",2,1,5
10,4,1,0.571868181228638,3.99945712089539,2342.36870002747,"0",1,3,5
10,4,1,0.557668924331665,5.99948191642761,2344.36872601509,"0",1,1,5
10,4,1,0.664128065109253,8.01604509353638,2346.38528895378,"0",2,3,5
10,4,1,0.618700981140137,9.99950695037842,2348.36875104904,"0",1,2,5
10,4,1,0,10.0008330345154,2348.37007594109,"Reward",0,0,5
10,20,1,0.784765958786011,1.99878311157227,2360.4188079834,"0",0,3,5
10,20,1,0.491664171218872,3.9982750415802,2362.41830086708,"0",0,1,5
10,20,1,0.781918048858643,6.0159900188446,2364.43601608276,"0",2,3,5
10,20,1,0.747442960739136,8.01599407196045,2366.43601989746,"0",2,1,5
10,20,1,0.583900928497314,9.99918413162231,2368.41920995712,"0",1,0,5
10,20,1,0,10.0005030632019,2368.42052793503,"Reward",0,0,5
10,8,1,0.748208999633789,2.01565408706665,2380.4860959053,"0",2,3,5
10,8,1,0.450021028518677,3.99916505813599,2382.46960687637,"0",0,3,5
10,8,1,0.515635967254639,5.99902415275574,2384.46946597099,"0",1,2,5
10,8,2,0.89767599105835,8.01575613021851,2386.48619794846,"0",2,7,5
10,8,1,0.814396858215332,9.99904012680054,2388.46948194504,"0",0,4,5
10,8,1,0,10.0011661052704,2388.47160696983,"Reward",0,0,5
10,8,1,0.544256925582886,1.99890804290771,2400.51975607872,"0",1,0,5
10,8,1,0.478298902511597,3.99879002571106,2402.51963806152,"0",0,0,5
10,8,1,0.470691919326782,5.99904108047485,2404.51988792419,"0",0,6,5
10,8,1,0.479381799697876,7.99915313720703,2406.5200009346,"0",1,0,5
10,8,1,0.520280838012695,9.99929809570312,2408.5201458931,"0",1,1,5
10,8,1,0,9.9995641708374,2408.52041101456,"Reward",0,0,5
10,20,1,0.492800951004028,1.99913096427917,2420.5699930191,"0",0,6,5
10,20,1,0.447197914123535,4.01604294776917,2422.58690500259,"0",0,2,5
10,20,1,0.440891027450562,5.99939203262329,2424.57025408745,"0",0,1,5
10,20,1,0.488433122634888,7.99960517883301,2426.57046699524,"0",1,4,5
10,20,1,0.613187074661255,9.99970602989197,2428.57056808472,"0",1,2,5
10,20,1,0,9.99991607666016,2428.57077693939,"Reward",0,0,5
10,8,1,0.53770112991333,1.99947309494019,2440.62101387978,"0",1,1,5
10,8,2,0.996568918228149,4.01588416099548,2442.63742494583,"0",2,5,5
10,8,1,0.690623998641968,5.9991660118103,2444.62070703506,"0",1,5,5
10,8,1,0.614403009414673,8.01578903198242,2446.63733005524,"0",2,2,5
10,8,1,0.477535009384155,9.99924898147583,2448.62079000473,"0",1,7,5
10,8,1,0,10.0002951622009,2448.62183499336,"Reward",0,0,5
10,4,1,0.678591966629028,1.99938702583313,2460.67102789879,"0",0,5,5
10,4,1,0.781489133834839,4.01601409912109,2462.68765497208,"0",2,7,5
10,4,2,0.864639043807983,6.01602506637573,2464.68766593933,"0",2,7,5
10,4,1,0.731262922286987,8.01607799530029,2466.68771886826,"0",2,6,5
10,4,1,0.516769886016846,9.99952912330627,2468.67116904259,"0",0,1,5
10,4,1,0,9.99973797798157,2468.67137789726,"Reward",0,0,5
14,8,2,1.00007200241089,1.9990291595459,2486.8880879879,"0",0,5,6
14,8,1,0.765275001525879,4.01578402519226,2488.90484309196,"0",2,6,6
14,8,1,0.596240043640137,5.998939037323,2490.88799786568,"0",1,6,6
14,8,1,0.471606016159058,7.99925494194031,2492.88831305504,"0",0,5,6
14,8,1,0.501760959625244,9.99901700019836,2494.88807606697,"0",0,6,6
14,8,1,0.502433061599731,11.9995131492615,2496.88857197762,"0",1,1,6
14,8,1,0.691711187362671,13.9993171691895,2498.88837599754,"0",0,4,6
14,8,1,0,13.9995269775391,2498.88858509064,"Reward",0,0,6
14,20,1,0.553100109100342,1.99920678138733,2506.93877506256,"0",1,5,6
14,20,1,0.504085779190063,3.99901700019836,2508.93858599663,"0",1,1,6
14,20,1,0.714215040206909,6.01555681228638,2510.95512604713,"0",2,5,6
14,20,1,0.898443937301636,8.01547288894653,2512.95504188538,"0",2,4,6
14,20,1,0.555726051330566,9.99916076660156,2514.93873000145,"0",0,5,6
14,20,1,0.499281167984009,11.9993879795074,2516.93895697594,"0",1,3,6
14,20,1,0.714347839355469,14.0156219005585,2518.95519089699,"0",2,6,6
14,20,1,0,14.0158319473267,2518.95539999008,"Reward",0,0,6
14,4,1,0.631853818893433,2.01584696769714,2527.02205586433,"0",2,1,6
14,4,1,0.63205099105835,4.01591205596924,2529.02211904526,"0",2,1,6
14,4,1,0.524058818817139,5.99945092201233,2531.00565886497,"0",0,0,6
14,4,1,0.593276023864746,7.99955582618713,2533.00576400757,"0",0,2,6
14,4,1,0.69655704498291,10.016233921051,2535.02244091034,"0",2,2,6
14,4,1,0.476999998092651,11.9995899200439,2537.0057990551,"0",0,2,6
14,4,1,0.44475793838501,13.9996478557587,2539.00585603714,"0",1,4,6
14,4,1,0,14.0006918907166,2539.00689888,"Reward",0,0,6
14,8,1,0.648772954940796,2.01596903800964,2547.07277703285,"0",2,5,6
14,8,1,0.488265991210938,3.99923205375671,2549.05603885651,"0",1,4,6
14,8,1,0.598775863647461,5.9991819858551,2551.05598902702,"0",1,2,6
14,8,1,0.546522855758667,7.99937701225281,2553.05618286133,"0",0,7,6
14,8,2,0.597287893295288,10.0163071155548,2555.07311296463,"0",2,7,6
14,8,1,0.614808082580566,11.9987490177155,2557.05555486679,"0",0,7,6
14,8,1,0.53714394569397,13.9994471073151,2559.05625486374,"0",0,3,6
14,8,1,0,13.9996571540833,2559.05646204948,"Reward",0,0,6
14,20,1,0.697602987289429,2.01586008071899,2567.12334489822,"0",2,3,6
14,20,2,0.731160879135132,4.01565408706665,2569.1231379509,"0",2,4,6
14,20,1,0.646713972091675,6.01544404029846,2571.12292790413,"0",2,0,6
14,20,1,0.523356914520264,7.99904108047485,2573.10652494431,"0",1,3,6
14,20,1,0.479658842086792,9.9991660118103,2575.10664987564,"0",0,5,6
14,20,1,0.491805076599121,11.9991319179535,2577.1066160202,"0",0,4,6
14,20,1,0.47749400138855,13.9989809989929,2579.10646605492,"0",1,5,6
14,20,1,0,13.9991929531097,2579.10667586327,"Reward",0,0,6
14,4,1,0.526279926300049,1.99943804740906,2587.15687799454,"0",1,7,6
14,4,1,0.547906875610352,3.99938988685608,2589.1568300724,"0",1,6,6
14,4,1,0.715068101882935,6.01617193222046,2591.17361187935,"0",2,2,6
14,4,1,0.798022985458374,8.01597905158997,2593.17341899872,"0",2,7,6
14,4,1,0.559704065322876,9.99951100349426,2595.15695095062,"0",0,7,6
14,4,1,0.665321111679077,12.0160129070282,2597.17345309258,"0",2,1,6
14,4,1,0.698413133621216,14.0163199901581,2599.17375993729,"0",2,2,6
14,4,1,0,14.0173308849335,2599.17476987839,"Reward",0,0,6
14,20,1,0.492776870727539,1.99938297271729,2607.24054789543,"0",0,0,6
14,20,1,0.71269702911377,4.01612687110901,2609.25729107857,"0",2,0,6
14,20,1,0.423212051391602,5.99953103065491,2611.24069595337,"0",0,5,6
14,20,1,0.698575019836426,8.01626491546631,2613.25742888451,"0",2,7,6
14,20,1,0.497805118560791,9.99953889846802,2615.2407040596,"0",0,5,6
14,20,1,0.55830192565918,12.0000789165497,2617.24124407768,"0",1,1,6
14,20,1,0.424650907516479,13.9996418952942,2619.24080705643,"0",1,2,6
14,20,1,0,13.9998559951782,2619.24101996422,"Reward",0,0,6
14,20,1,0.549100875854492,1.99981904029846,2627.29088807106,"0",1,5,6
14,20,1,0.547354221343994,3.99996209144592,2629.29103088379,"0",0,7,6
14,20,1,0.449634075164795,6.00000500679016,2631.29107403755,"0",0,5,6
14,20,1,0.424572944641113,8.00005507469177,2633.29112291336,"0",0,6,6
14,20,1,0.631542921066284,10.0166771411896,2635.30774593353,"0",2,5,6
14,20,1,0.547914981842041,11.9996581077576,2637.2907269001,"0",2,4,6
14,20,1,0.777626991271973,14.0001320838928,2639.29120087624,"0",1,2,6
14,20,1,0,14.0003430843353,2639.291410923,"Reward",0,0,6
14,4,1,0.506125926971436,1.99940800666809,2647.34133386612,"0",1,1,6
14,4,1,0.503789186477661,3.99942803382874,2649.34135389328,"0",1,5,6
14,4,1,0.445693969726562,5.99924993515015,2651.34117603302,"0",0,6,6
14,4,1,0.410199165344238,7.99943804740906,2653.34136390686,"0",1,0,6
14,4,1,0.598088979721069,10.0160040855408,2655.35792994499,"0",2,1,6
14,4,1,0.509399890899658,11.9996490478516,2657.3415749073,"0",1,4,6
14,4,1,0.39412784576416,13.9996781349182,2659.34160399437,"0",1,5,6
14,4,1,0,14.0018150806427,2659.34373998642,"Reward",0,0,6
14,4,1,0.962512969970703,1.99885511398315,2667.39173603058,"0",0,4,6
14,4,1,0.468356847763062,3.998939037323,2669.39182090759,"0",1,4,6
14,4,1,0.403894186019897,5.99894595146179,2671.39182686806,"0",1,7,6
14,4,1,0.542586088180542,7.99900603294373,2673.39188790321,"0",0,4,6
14,4,1,0.573020935058594,9.99885702133179,2675.3917388916,"0",0,2,6
14,4,1,0.614920139312744,12.0157129764557,2677.40859508514,"0",2,3,6
14,4,1,0.547313928604126,13.9992089271545,2679.39209103584,"0",1,7,6
14,4,1,0,13.9994189739227,2679.39229989052,"Reward",0,0,6
14,8,1,0.630980968475342,1.99927687644958,2687.44216990471,"0",0,4,6
14,8,1,0.570042133331299,3.99926996231079,2689.44216394424,"0",0,7,6
14,8,1,0.58112907409668,6.01619100570679,2691.45908498764,"0",2,7,6
14,8,1,0.513045072555542,7.99961400032043,2693.44250798225,"0",0,3,6
14,8,1,0.914921998977661,10.016096830368,2695.45898985863,"0",2,7,6
14,8,1,0.593986988067627,11.9996619224548,2697.44255590439,"0",0,0,6
14,8,1,0.846861839294434,14.0159409046173,2699.45883488655,"0",2,7,6
14,8,1,0,14.0161528587341,2699.45904588699,"Reward",0,0,6
14,8,2,0.915091037750244,2.0155029296875,2707.52561187744,"0",2,2,6
14,8,1,0.512208938598633,3.99913692474365,2709.50924706459,"0",0,3,6
14,8,1,0.441928863525391,5.99942207336426,2711.50953197479,"0",1,4,6
14,8,2,0.638581037521362,7.99896192550659,2713.50907206535,"0",0,4,6
14,8,2,0,7.99916505813599,2713.50927400589,"Forced travel",0,0,6
14,8,1,0.794647932052612,1.99915099143982,2719.54272794724,"0",1,0,6
14,8,2,0.996181011199951,4.01479005813599,2721.55836796761,"0",2,3,6
14,8,1,0.730896949768066,6.01580786705017,2723.55938506126,"0",2,2,6
14,8,1,0.6981201171875,8.01599192619324,2725.55957007408,"0",2,2,6
14,8,1,0.914748907089233,10.0161578655243,2727.55973601341,"0",2,5,6
14,8,2,0.996932029724121,12.0160050392151,2729.55958294868,"0",2,6,6
14,8,2,0,12.0162079334259,2729.55978488922,"Forced travel",0,0,6
14,20,1,0.631307125091553,2.01599597930908,2735.60970306396,"0",2,1,6
14,20,1,0.832250118255615,4.01596307754517,2737.60966992378,"0",2,4,6
14,20,1,0.568915843963623,5.99951410293579,2739.59322094917,"0",1,7,6
14,20,1,0.617650985717773,8.00007200241089,2741.59378004074,"0",1,6,6
14,20,1,0.556120872497559,9.9993679523468,2743.593075037,"0",1,7,6
14,20,1,0.913856983184814,12.0159630775452,2745.60966992378,"0",2,7,6
14,20,1,0.627592802047729,13.9996919631958,2747.59339904785,"0",0,3,6
14,20,1,0,13.9998979568481,2747.59360408783,"Reward",0,0,6
14,4,2,0.997506856918335,2.01558303833008,2755.65963888168,"0",2,2,6
14,4,1,0.690125942230225,3.9998631477356,2757.64391803741,"0",1,0,6
14,4,1,0.61390495300293,6.01620292663574,2759.66025805473,"0",2,6,6
14,4,2,0.747655868530273,8.01655602455139,2761.66061306,"0",2,7,6
14,4,2,0,8.0168080329895,2761.66086292267,"Forced travel",0,0,6
14,20,1,0.573731184005737,1.99882507324219,2767.6935069561,"0",0,0,6
14,20,1,0.58188796043396,4.01570892333984,2769.71039104462,"0",2,3,6
14,20,1,0.580410003662109,6.01585292816162,2771.71053385735,"0",2,6,6
14,20,1,0.564245939254761,8.0158839225769,2773.71056509018,"0",2,3,6
14,20,1,0.935145139694214,9.99988508224487,2775.6945669651,"0",0,2,6
14,20,1,0.764225006103516,12.0157589912415,2777.7104408741,"0",2,2,6
14,20,1,0.497073173522949,13.9990680217743,2779.69374990463,"0",1,4,6
14,20,1,0,14.0001299381256,2779.69481086731,"Reward",0,0,6
14,8,1,0.550383806228638,1.9990611076355,2787.74411797523,"0",0,3,6
14,8,1,0.386824131011963,3.99867796897888,2789.743735075,"0",0,3,6
14,8,1,0.582356929779053,6.01611399650574,2791.76117086411,"0",2,4,6
14,8,1,0.53044319152832,8.01585912704468,2793.76091599464,"0",2,0,6
14,8,1,0.473069190979004,9.99914598464966,2795.74420309067,"0",0,3,6
14,8,2,0.57037091255188,11.9992940425873,2797.74435091019,"0",1,3,6
14,8,1,0.848273038864136,14.016047000885,2799.76110386848,"0",2,4,6
14,8,1,0,14.0173571109772,2799.76241207123,"Reward",0,0,6
14,4,1,0.529858827590942,1.99935507774353,2807.81129097939,"0",0,2,6
14,4,1,0.614086866378784,4.01621294021606,2809.82815003395,"0",2,6,6
14,4,2,0.79798412322998,6.01620411872864,2811.82814192772,"0",2,7,6
14,4,1,0.477458000183105,7.99933910369873,2813.81127595901,"0",0,2,6
14,4,1,0.747817039489746,10.016135931015,2815.82807302475,"0",2,7,6
14,4,1,0.881385087966919,12.0158801078796,2817.8278169632,"0",2,5,6
14,4,1,0.72498893737793,13.9995410442352,2819.81147789955,"0",1,0,6
14,4,1,0,13.9997529983521,2819.81168889999,"Reward",0,0,6
14,4,2,0.997310876846313,2.01572179794312,2827.87825202942,"0",2,5,6
14,4,1,0.914912939071655,4.01556396484375,2829.87809300423,"0",2,7,6
14,4,1,0.64615797996521,5.99894285202026,2831.8614730835,"0",1,6,6
14,4,1,0.655214071273804,7.99900078773499,2833.86153101921,"0",0,7,6
14,4,1,0.66496205329895,10.0159409046173,2835.87847089767,"0",2,2,6
14,4,1,0.60391092300415,11.9992389678955,2837.86176800728,"0",0,7,6
14,4,1,0.647749900817871,14.0155758857727,2839.87810587883,"0",2,0,6
14,4,1,0,14.0157837867737,2839.87831306458,"Reward",0,0,6
14,20,1,0.831451177597046,2.01538181304932,2847.94509100914,"0",2,3,6
14,20,1,0.714713096618652,4.01566386222839,2849.94537305832,"0",2,2,6
14,20,2,0.898406982421875,6.01580381393433,2851.94551301003,"0",2,7,6
14,20,2,0.814857959747314,8.01581883430481,2853.9455280304,"0",2,4,6
14,20,2,0,8.01601696014404,2853.94572496414,"Forced travel",0,0,6
14,4,1,0.562943935394287,1.99870204925537,2859.97863698006,"0",0,2,6
14,4,1,0.629262924194336,3.99903202056885,2861.97896695137,"0",1,2,6
14,4,1,0.531496047973633,5.99905300140381,2863.97898793221,"0",0,3,6
14,4,1,0.66521692276001,8.01574492454529,2865.99567985535,"0",2,6,6
14,4,1,0.466381072998047,9.99931883811951,2867.97925400734,"0",0,3,6
14,4,1,0.490109920501709,11.9991729259491,2869.97910785675,"0",1,5,6
14,4,1,0.536087036132812,13.9989259243011,2871.9788608551,"0",0,3,6
14,4,1,0,14.0002598762512,2871.9801940918,"Reward",0,0,6
14,8,1,0.578606843948364,1.99901103973389,2880.02926707268,"0",1,0,6
14,8,1,0.681502103805542,4.01578497886658,2882.04604101181,"0",2,7,6
14,8,1,0.46638298034668,5.99846005439758,2884.02871608734,"0",0,2,6
14,8,1,0.452178955078125,7.99934697151184,2886.02960300446,"0",1,4,6
14,8,1,0.497254133224487,10.0156631469727,2888.0459189415,"0",2,2,6
14,8,1,0.442394971847534,11.9992389678955,2890.02949500084,"0",0,2,6
14,8,1,0.697326183319092,14.0160150527954,2892.04627203941,"0",2,4,6
14,8,1,0,14.0162250995636,2892.04648089409,"Reward",0,0,6
