"Handling","Reward","Choice","Task.RT","Choice.RT","Experiment.Time","Trial.Outcome","Task.Type","Task.Setup","Block"
2,8,2,0.696738004684448,1.99965691566467,9.06004500389099,"0",0,2,1
2,8,2,0,2.00311994552612,9.06350803375244,"Forced travel",0,0,1
2,20,1,0.769438028335571,1.99918985366821,27.093658208847,"0",1,2,1
2,20,1,0,2.00019884109497,27.0946660041809,"Reward",0,0,1
2,4,1,0.618952035903931,2.00043892860413,47.1435010433197,"0",1,5,1
2,4,1,0,2.00064301490784,47.1437041759491,"Reward",0,0,1
2,8,1,0.912269115447998,2.01632618904114,68.9266901016235,"0",2,4,1
2,8,1,0,2.01661205291748,68.9269762039185,"Reward",0,0,1
2,4,0,0.168370008468628,0.170153856277466,87.1632812023163,"0",2,7,1
2,4,0,0,0.170302867889404,87.1634302139282,"Quit",0,0,1
2,20,1,0.630544900894165,2.0157949924469,105.209503173828,"0",2,2,1
2,20,1,0,2.01602101325989,105.209728002548,"Reward",0,0,1
2,8,1,0.781889915466309,2.01583480834961,125.293629169464,"0",2,0,1
2,8,1,0,2.01604080200195,125.293834209442,"Reward",0,0,1
2,4,1,0.715737104415894,1.99917411804199,145.343321084976,"0",1,0,1
2,4,1,0,1.99938607215881,145.343532085419,"Reward",0,0,1
2,20,1,0.681994915008545,2.01594209671021,165.410191059113,"0",2,4,1
2,20,1,0,2.01807188987732,165.41231918335,"Reward",0,0,1
2,20,1,0.915119886398315,2.01595282554626,185.476940155029,"0",2,4,1
2,20,1,0,2.01616382598877,185.477150201797,"Reward",0,0,1
2,8,2,1.00008511543274,1.99927282333374,205.52664399147,"0",0,1,1
2,8,2,0,1.99947881698608,205.526850223541,"Forced travel",0,0,1
2,4,2,0.915285110473633,2.0160219669342,223.577041149139,"0",2,5,1
2,4,2,0,2.01815915107727,223.57917714119,"Forced travel",0,0,1
2,8,1,0.699450016021729,2.01631593704224,241.626084089279,"0",2,0,1
2,8,1,0,2.01651501655579,241.626283168793,"Reward",0,0,1
2,4,1,0.665419101715088,2.01574182510376,261.693327188492,"0",2,3,1
2,4,1,0,2.01595687866211,261.693541049957,"Reward",0,0,1
2,20,1,0.638947010040283,1.99857401847839,281.742879152298,"0",0,1,1
2,20,1,0,1.99878311157227,281.743087053299,"Reward",0,0,1
2,20,2,0.879861831665039,1.99865412712097,301.792880058289,"0",0,5,1
2,20,2,0,1.99885702133179,301.793081998825,"Forced travel",0,0,1
2,4,1,0.615032911300659,2.01583409309387,319.843315124512,"0",2,1,1
2,4,1,0,2.0168628692627,319.844343185425,"Reward",0,0,1
2,8,1,0.731671094894409,2.01606106758118,339.910106182098,"0",2,2,1
2,8,1,0,2.01716899871826,339.911212205887,"Reward",0,0,1
2,20,1,0.749199867248535,1.99915194511414,359.959841012955,"0",1,1,1
2,20,1,0,2.00048685073853,359.961175203323,"Reward",0,0,1
2,8,1,0.655390977859497,1.9993748664856,380.010150194168,"0",0,6,1
2,8,1,0,2.00042700767517,380.011201143265,"Reward",0,0,1
2,20,1,0.555001974105835,1.99873995780945,400.059570074081,"0",0,3,1
2,20,1,0,1.99983501434326,400.060665130615,"Reward",0,0,1
2,4,1,0.559932947158813,1.99902296066284,420.109803199768,"0",1,3,1
2,4,1,0,1.99923205375671,420.110011100769,"Reward",0,0,1
14,8,1,0.94147515296936,1.99942898750305,446.326413154602,"0",1,2,2
14,8,2,0.996112823486328,4.01608109474182,448.343065023422,"0",2,5,2
14,8,1,0.965925216674805,5.99944710731506,450.326431035995,"0",0,7,2
14,8,1,0.672989845275879,7.99968600273132,452.32667016983,"0",0,2,2
14,8,1,0.598020076751709,10.0161230564117,454.343107223511,"0",2,1,2
14,8,2,0.765260934829712,12.0161230564117,456.343106031418,"0",2,2,2
14,8,2,0,12.0163249969482,456.34330701828,"Forced travel",0,0,2
14,20,1,0.497988939285278,2.01589512825012,462.393215179443,"0",2,4,2
14,20,1,0.514315128326416,4.01603412628174,464.393355131149,"0",2,3,2
14,20,1,0.543008089065552,5.99928903579712,466.376610994339,"0",1,4,2
14,20,1,0.661098003387451,7.99877905845642,468.376100063324,"0",0,4,2
14,20,1,0.657145023345947,9.99936389923096,470.376685142517,"0",0,1,2
14,20,1,0.714440822601318,12.015949010849,472.393270015717,"0",2,5,2
14,20,1,0.728857040405273,13.9991929531097,474.376513004303,"0",0,4,2
14,20,1,0,13.9994029998779,474.376723051071,"Reward",0,0,2
14,20,1,0.814893007278442,1.99911785125732,482.426400184631,"0",1,1,2
14,20,1,0.663811206817627,4.01576900482178,484.443051099777,"0",2,4,2
14,20,1,0.740236043930054,5.99928188323975,486.426565170288,"0",0,0,2
14,20,1,0.578321933746338,7.99918103218079,488.426463127136,"0",1,5,2
14,20,1,0.652415990829468,9.99941086769104,490.426693201065,"0",0,4,2
14,20,1,0.628549098968506,11.9988658428192,492.426148176193,"0",1,2,2
14,20,1,0.469633102416992,13.9990940093994,494.426376104355,"0",1,2,2
14,20,1,0,13.9993050098419,494.426586151123,"Reward",0,0,2
14,8,1,0.551839828491211,1.9990348815918,502.476354122162,"0",1,7,2
14,8,1,0.598680019378662,4.01537990570068,504.492698192596,"0",2,3,2
14,8,1,0.776857137680054,5.99909996986389,506.476418018341,"0",0,6,2
14,8,1,0.52997088432312,7.99905300140381,508.476370096207,"0",1,7,2
14,8,1,0.593297004699707,9.99904298782349,510.476361036301,"0",1,1,2
14,8,1,0.681711912155151,12.0159969329834,512.493315219879,"0",2,5,2
14,8,1,0.682586908340454,13.9990630149841,514.476381063461,"0",0,4,2
14,8,1,0,13.999284029007,514.47660112381,"Reward",0,0,2
14,4,0,0.63405704498291,0.656983137130737,521.184079170227,"0",0,3,2
14,4,0,0,0.657706022262573,521.184802055359,"Quit",0,0,2
14,4,0,0.265731811523438,0.267472982406616,525.478290081024,"0",2,5,2
14,4,0,0,0.267669916152954,525.478487014771,"Quit",0,0,2
14,4,0,0.750483989715576,0.76988697052002,530.28075504303,"0",0,2,2
14,4,0,0,0.770025968551636,530.280894994736,"Quit",0,0,2
14,8,1,0.682071924209595,2.01580786705017,536.326318025589,"0",2,6,2
14,8,1,0.548151969909668,4.01584792137146,538.326359033585,"0",2,0,2
14,8,1,0.664278030395508,6.01586484909058,540.326376199722,"0",2,0,2
14,8,1,0.698264122009277,8.01609086990356,542.32660317421,"0",2,2,2
14,8,1,0.667118072509766,9.99914383888245,544.309655189514,"0",0,4,2
14,8,1,0.682052850723267,11.9991688728333,546.309680223465,"0",1,1,2
14,8,1,0.647561073303223,14.0154888629913,548.326000213623,"0",2,0,2
14,8,1,0,14.0156948566437,548.326205015182,"Reward",0,0,2
14,20,1,0.465282917022705,2.01604294776917,556.393285036087,"0",2,7,2
14,20,1,0.474881887435913,3.99880194664001,558.376044034958,"0",1,5,2
14,20,1,0.581841945648193,6.01575684547424,560.392999172211,"0",2,1,2
14,20,1,0.464238882064819,8.01594591140747,562.393189191818,"0",2,1,2
14,20,1,0.540356159210205,9.99936199188232,564.3766040802,"0",1,0,2
14,20,1,0.528953075408936,11.9991118907928,566.376354217529,"0",1,2,2
14,20,1,0.777767896652222,13.9991028308868,568.376345157623,"0",0,7,2
14,20,1,0,13.9993109703064,568.376551151276,"Reward",0,0,2
14,4,0,0.254263162612915,0.257113933563232,574.684354066849,"0",1,3,2
14,4,0,0,0.25724983215332,574.684489011765,"Quit",0,0,2
14,8,1,0.554541110992432,1.99921894073486,580.709841012955,"0",1,1,2
14,8,1,0.844941854476929,3.99912691116333,582.709748029709,"0",0,3,2
14,8,1,0.580034971237183,6.01583194732666,584.726453065872,"0",2,4,2
14,8,1,0.498264789581299,8.01571488380432,586.72633600235,"0",2,0,2
14,8,1,0.548658132553101,10.0157599449158,588.726381063461,"0",2,6,2
14,8,1,0.530038118362427,12.0158009529114,590.726422071457,"0",2,0,2
14,8,1,0.614449977874756,14.0157008171082,592.726322174072,"0",2,0,2
14,8,1,0,14.0159089565277,592.726529121399,"Reward",0,0,2
14,20,1,0.509523153305054,1.99881505966187,600.776333093643,"0",1,4,2
14,20,2,1.00007295608521,3.99902701377869,602.776546001434,"0",0,1,2
14,20,1,0.533272981643677,5.9987940788269,604.776311159134,"0",1,3,2
14,20,1,0.668184995651245,7.99851107597351,606.776029109955,"0",0,3,2
14,20,1,0.631150007247925,10.0156629085541,608.793182134628,"0",2,0,2
14,20,1,0.713976860046387,11.9987568855286,610.776275157928,"0",0,2,2
14,20,1,0.494445085525513,13.9988059997559,612.776323080063,"0",1,3,2
14,20,1,0,13.9990248680115,612.776542186737,"Reward",0,0,2
14,8,1,0.881741046905518,2.0157630443573,620.842984199524,"0",2,6,2
14,8,1,0.745167016983032,3.99908709526062,622.826308012009,"0",0,7,2
14,8,1,0.768027067184448,5.9987850189209,624.826006174088,"0",0,5,2
14,8,1,0.665369987487793,8.01570510864258,626.842926025391,"0",2,5,2
14,8,1,0.458561182022095,9.99875903129578,628.825980186462,"0",1,5,2
14,8,1,0.707382917404175,11.9987671375275,630.825988054276,"0",0,4,2
14,8,1,0.8820960521698,14.0157279968262,632.842948198318,"0",2,7,2
14,8,1,0,14.0159389972687,632.843159198761,"Reward",0,0,2
14,8,1,0.602638006210327,1.99901509284973,640.892997026443,"0",1,1,2
14,8,1,0.486559152603149,3.99896502494812,642.89294719696,"0",1,0,2
14,8,1,0.646132946014404,5.99865412712097,644.892636060715,"0",0,0,2
14,8,1,0.504492044448853,7.99885416030884,646.892836093903,"0",1,1,2
14,8,1,0.647331953048706,9.99899196624756,648.89297413826,"0",0,3,2
14,8,1,0.658758878707886,11.9989960193634,650.892978191376,"0",0,0,2
14,8,1,0.648254871368408,14.0156321525574,652.909614086151,"0",2,5,2
14,8,1,0,14.0169451236725,652.910926103592,"Reward",0,0,2
14,20,1,0.581001996994019,1.9992458820343,660.959618091583,"0",0,2,2
14,20,1,0.561866998672485,3.99923896789551,662.959609031677,"0",1,1,2
14,20,1,0.564840793609619,6.01559710502625,664.975967168808,"0",2,0,2
14,20,1,0.5762619972229,7.99923396110535,666.95960521698,"0",0,7,2
14,20,1,0.731555938720703,10.015604019165,668.975975036621,"0",2,1,2
14,20,1,0.540781021118164,11.9994480609894,670.95982003212,"0",1,2,2
14,20,1,0.632398128509521,13.9992671012878,672.959638118744,"0",0,1,2
14,20,1,0,13.9994750022888,672.959845066071,"Reward",0,0,2
14,4,0,0.339648962020874,0.344060897827148,679.354671001434,"0",1,4,2
14,4,0,0,0.344194889068604,679.354804039001,"Quit",0,0,2
14,4,1,0.664956092834473,2.01558589935303,685.40962600708,"0",2,1,2
14,4,1,0.44819712638855,4.01554179191589,687.409582138062,"0",2,7,2
14,4,1,0.506624937057495,5.99889397621155,689.392934083939,"0",1,4,2
14,4,1,0.602250099182129,7.9985888004303,691.392629146576,"0",0,4,2
14,4,1,0.665058851242065,10.0154008865356,693.409440994263,"0",2,3,2
14,4,1,0.479203939437866,11.9988989830017,695.392938137054,"0",1,7,2
14,4,1,0.513324975967407,13.9991118907928,697.393153190613,"0",0,0,2
14,4,1,0,13.9993720054626,697.393411159515,"Reward",0,0,2
14,20,1,0.493640899658203,1.99902105331421,705.442953109741,"0",1,7,2
14,20,1,0.598228931427002,4.01587796211243,707.459811210632,"0",2,7,2
14,20,1,0.610970973968506,5.99902105331421,709.442953109741,"0",0,3,2
14,20,1,0.603841066360474,7.99899888038635,711.442931175232,"0",1,1,2
14,20,1,0.948190927505493,10.0153460502625,713.459278106689,"0",2,2,2
14,20,1,0.455824851989746,11.9991660118103,715.443099021912,"0",1,6,2
14,20,2,0.381015062332153,13.9989678859711,717.442900180817,"0",1,1,2
14,20,1,0,13.9991760253906,717.443107128143,"Reward",0,0,2
14,8,2,0.849087953567505,2.01614999771118,725.50999212265,"0",2,7,2
14,8,1,0.619050025939941,3.99880003929138,727.492643117905,"0",1,7,2
14,8,1,0.740746974945068,5.99841785430908,729.49226307869,"0",0,1,2
14,8,1,0.562685966491699,8.01571202278137,731.509555101395,"0",2,2,2
14,8,1,0.442562103271484,9.99901700019836,733.492860078812,"0",1,0,2
14,8,1,0.493089199066162,11.9990730285645,735.492916107178,"0",0,3,2
14,8,1,0.448406934738159,13.9990470409393,737.492890119553,"0",1,5,2
14,8,1,0,13.9992530345917,737.493095159531,"Reward",0,0,2
14,4,1,0.629379034042358,1.9989709854126,745.542916059494,"0",0,6,2
14,4,1,0.831439971923828,4.01567983627319,747.559625148773,"0",2,4,2
14,4,1,0.513411998748779,5.99863696098328,749.542582035065,"0",1,7,2
14,4,1,0.517097949981689,7.99894094467163,751.542886018753,"0",1,0,2
14,4,1,0.649184942245483,9.99919104576111,753.543136119843,"0",0,1,2
14,4,1,0.465135097503662,11.9989290237427,755.54287314415,"0",1,3,2
14,4,1,0.514136075973511,14.0156528949738,757.559598207474,"0",2,0,2
14,4,1,0,14.0158610343933,757.5598051548,"Reward",0,0,2
14,20,1,0.491847038269043,1.99903798103333,765.609596014023,"0",1,0,2
14,20,1,0.616015911102295,3.99925088882446,767.609809160233,"0",0,1,2
14,20,1,0.496295928955078,5.99899196624756,769.609549999237,"0",1,7,2
14,20,1,0.539822816848755,7.99895787239075,771.609516143799,"0",1,6,2
14,20,1,0.581567049026489,10.0153560638428,773.625913143158,"0",2,6,2
14,20,1,0.948722839355469,12.0157389640808,775.62629699707,"0",2,5,2
14,20,1,0.548277139663696,14.0149250030518,777.625483036041,"0",2,2,2
14,20,1,0,14.0151309967041,777.625688076019,"Reward",0,0,2
14,8,1,0.501617908477783,1.99941396713257,785.676187992096,"0",1,7,2
14,8,2,0.706809997558594,3.99961090087891,787.676385164261,"0",0,7,2
14,8,2,0.981456995010376,6.01630187034607,789.693077087402,"0",2,6,2
14,8,2,0,6.01744103431702,789.694214105606,"Forced travel",0,0,2
14,4,1,0.58039402961731,2.01541996002197,795.743187189102,"0",2,4,2
14,4,1,0.713395833969116,3.99849891662598,797.726265192032,"0",0,0,2
14,4,1,0.607339859008789,5.99864602088928,799.726413011551,"0",0,5,2
14,4,1,0.565192937850952,7.99836587905884,801.726132154465,"0",1,6,2
14,4,1,0.614971876144409,9.99867296218872,803.726438999176,"0",0,3,2
14,4,1,0.569219827651978,11.998162984848,805.725928068161,"0",0,6,2
14,4,1,0.573113918304443,13.9984300136566,807.726196050644,"0",0,5,2
14,4,1,0,13.998636007309,807.726401090622,"Reward",0,0,2
14,20,1,0.505442142486572,1.99905586242676,815.776188135147,"0",1,4,2
14,20,1,0.548651933670044,4.01572108268738,817.792853116989,"0",2,0,2
14,20,1,0.714920997619629,6.01572704315186,819.792859077454,"0",2,7,2
14,20,2,0.779375076293945,8.01599788665771,821.793131113052,"0",2,5,2
14,20,1,0.5588059425354,9.99907207489014,823.776204109192,"0",0,6,2
14,20,1,0.893539905548096,11.9992899894714,825.776423215866,"0",0,4,2
14,20,1,0.531342029571533,13.9990289211273,827.776161193848,"0",1,0,2
14,20,1,0,13.9992370605469,827.776368141174,"Reward",0,0,2
14,8,1,0.749209880828857,2.016028881073,835.842947006226,"0",2,6,2
14,8,1,0.804852962493896,3.99930286407471,837.826220989227,"0",0,4,2
14,8,1,0.61670708656311,5.99899578094482,839.825913190842,"0",0,5,2
14,8,1,0.521097898483276,7.9992618560791,841.82618021965,"0",1,2,2
14,8,1,0.488152027130127,9.99923992156982,843.826158046722,"0",0,4,2
14,8,1,0.717561006546021,11.9992759227753,845.826194047928,"0",0,1,2
14,8,2,0.664441823959351,14.0158178806305,847.842735052109,"0",2,0,2
14,8,1,0,14.0160238742828,847.842941045761,"Reward",0,0,2
14,20,1,0.532384872436523,1.99898600578308,855.892815113068,"0",1,7,2
14,20,1,0.410402059555054,3.99916481971741,857.892994165421,"0",1,3,2
14,20,1,0.643336057662964,5.99898195266724,859.892811059952,"0",0,4,2
14,20,1,0.53944993019104,7.99923181533813,861.893062114716,"0",0,0,2
14,20,1,0.513247966766357,9.99918484687805,863.893015146255,"0",1,4,2
14,20,1,0.830530166625977,12.0156428813934,865.909471988678,"0",2,3,2
14,20,1,0.832017183303833,14.0158078670502,867.909637212753,"0",2,6,2
14,20,1,0,14.0161628723145,867.909991025925,"Reward",0,0,2
10,4,1,0.482409000396729,1.99983286857605,881.876083135605,"0",1,4,3
10,4,1,0.621638059616089,3.9999361038208,883.876185178757,"0",0,4,3
10,4,1,0.429838895797729,5.99986100196838,885.876111030579,"0",1,3,3
10,4,1,0.477195024490356,7.99994993209839,887.876200199127,"0",0,5,3
10,4,1,0.44519305229187,9.99957895278931,889.875829219818,"0",0,4,3
10,4,1,0,10.0008859634399,889.87713599205,"Reward",0,0,3
10,20,1,0.636706829071045,1.99897193908691,901.925775051117,"0",0,0,3
10,20,1,0.466992139816284,3.99934792518616,903.926151037216,"0",1,4,3
10,20,1,0.483529090881348,5.99929785728455,905.926101207733,"0",1,0,3
10,20,1,0.435791015625,7.99940395355225,907.926207065582,"0",1,0,3
10,20,1,0.930185079574585,10.0160388946533,909.942842006683,"0",2,4,3
10,20,1,0,10.0171020030975,909.943904161453,"Reward",0,0,3
10,8,1,0.615360975265503,2.01572704315186,922.009448051453,"0",2,6,3
10,8,1,0.580688953399658,4.01570010185242,924.009421110153,"0",2,0,3
10,8,1,0.388379812240601,5.99930095672607,925.993022203445,"0",1,5,3
10,8,1,0.432027101516724,7.99906897544861,927.992790222168,"0",1,0,3
10,8,1,0.46970009803772,9.99933195114136,929.993053197861,"0",0,3,3
10,8,1,0,9.99960899353027,929.993328094482,"Reward",0,0,3
10,8,1,0.569756031036377,1.99969887733459,942.042852163315,"0",1,7,3
10,8,1,0.746729135513306,4.01596903800964,944.059121131897,"0",2,5,3
10,8,1,0.464869976043701,6.01629185676575,946.059445142746,"0",2,0,3
10,8,1,0.70998477935791,7.99962997436523,948.042782068253,"0",0,2,3
10,8,1,0.498908042907715,9.99975299835205,950.042906045914,"0",1,7,3
10,8,1,0,10.0010838508606,950.044236183167,"Reward",0,0,3
10,4,0,0.282828092575073,0.284720897674561,960.378463029861,"0",2,0,3
10,4,0,0,0.284916877746582,960.378659009933,"Quit",0,0,3
10,20,1,0.481536865234375,2.01529979705811,970.425742149353,"0",2,1,3
10,20,1,0.686079978942871,3.99898195266724,972.409424066544,"0",0,4,3
10,20,1,0.602025985717773,5.99897599220276,974.409418106079,"0",1,6,3
10,20,1,0.667392015457153,7.99868893623352,976.409130096436,"0",0,2,3
10,20,1,0.738964080810547,9.99869799613953,978.409140110016,"0",0,3,3
10,20,1,0,9.99890780448914,978.40934920311,"Reward",0,0,3
10,20,1,0.614194869995117,2.01532506942749,990.475732088089,"0",2,0,3
10,20,1,0.532407999038696,3.9987199306488,992.459125995636,"0",1,2,3
10,20,1,0.552057981491089,5.99903011322021,994.459437131882,"0",0,3,3
10,20,1,0.681437015533447,8.01566791534424,996.476075172424,"0",2,3,3
10,20,1,0.631078958511353,10.0156810283661,998.476087093353,"0",2,0,3
10,20,1,0,10.0158898830414,998.476296186447,"Reward",0,0,3
10,4,0,0.266885042190552,0.272225141525269,1008.79934310913,"0",1,7,3
10,4,0,0,0.27236008644104,1008.79947710037,"Quit",0,0,3
10,4,0,0.317672967910767,0.321114063262939,1017.14826512337,"0",1,2,3
10,4,0,0,0.322370052337646,1017.14952111244,"Quit",0,0,3
10,8,1,0.848890066146851,2.01566696166992,1027.19275403023,"0",2,6,3
10,8,1,0.588306188583374,3.99919199943542,1029.17627906799,"0",1,1,3
10,8,1,0.544505834579468,5.99900984764099,1031.17609715462,"0",0,0,3
10,8,1,0.582909107208252,7.99898791313171,1033.17607522011,"0",1,3,3
10,8,1,0.515123128890991,10.0156328678131,1035.19272017479,"0",2,2,3
10,8,1,0,10.015841960907,1035.19292807579,"Reward",0,0,3
10,20,1,0.615225076675415,2.01518893241882,1047.25882101059,"0",2,4,3
10,20,1,0.49887490272522,4.01570701599121,1049.25933909416,"0",2,2,3
10,20,1,0.477180004119873,5.998783826828,1051.24241614342,"0",1,5,3
10,20,1,0.45645809173584,7.99909090995789,1053.24272298813,"0",1,4,3
10,20,1,0.500309944152832,9.99866890907288,1055.24230122566,"0",0,0,3
10,20,1,0,9.99887800216675,1055.24250912666,"Reward",0,0,3
10,8,1,0.515314817428589,2.01524686813354,1067.30901813507,"0",2,6,3
10,8,1,0.631630897521973,4.0158429145813,1069.30961418152,"0",2,4,3
10,8,1,0.56598687171936,5.99898791313171,1071.29275918007,"0",1,0,3
10,8,1,0.492933988571167,7.99895095825195,1073.29272222519,"0",1,1,3
10,8,1,0.43920111656189,9.99893808364868,1075.29270911217,"0",1,2,3
10,8,1,0,9.99914693832397,1075.29291701317,"Reward",0,0,3
10,20,1,0.63201379776001,1.99902606010437,1087.34271907806,"0",1,5,3
10,20,1,0.781253099441528,4.01570892333984,1089.35940217972,"0",2,4,3
10,20,1,0.472800970077515,5.9990599155426,1091.34275221825,"0",1,0,3
10,20,1,0.414273023605347,7.99900388717651,1093.34269714355,"0",1,3,3
10,20,1,0.913622140884399,10.0156910419464,1095.35938405991,"0",2,7,3
10,20,1,0,10.0159029960632,1095.35959506035,"Reward",0,0,3
10,8,1,0.646692037582397,1.99909281730652,1107.40939617157,"0",0,1,3
10,8,1,0.464855909347534,4.01566195487976,1109.42596507072,"0",2,1,3
10,8,1,0.4548020362854,5.99903893470764,1111.40934205055,"0",0,2,3
10,8,1,0.407562017440796,7.9990348815918,1113.40933799744,"0",0,6,3
10,8,1,0.566354990005493,9.99872398376465,1115.40902614594,"0",0,5,3
10,8,1,0,9.99893093109131,1115.40923213959,"Reward",0,0,3
10,4,0,0.265703201293945,0.267858028411865,1125.72808814049,"0",2,5,3
10,4,0,0,0.269914865493774,1125.73014521599,"Quit",0,0,3
10,8,2,0.997102022171021,2.01568698883057,1135.77600121498,"0",2,5,3
10,8,1,0.480549097061157,3.99933695793152,1137.75965118408,"0",1,3,3
10,8,1,0.677093029022217,5.99920797348022,1139.75952219963,"0",0,4,3
10,8,1,0.387453079223633,7.99924802780151,1141.75956320763,"0",0,6,3
10,8,1,0.476781845092773,9.99903297424316,1143.75934720039,"0",1,0,3
10,8,1,0,9.99924111366272,1143.75955414772,"Reward",0,0,3
10,20,1,0.584241151809692,1.99900698661804,1155.80921912193,"0",0,5,3
10,20,1,0.665728807449341,3.99942708015442,1157.80963802338,"0",0,2,3
10,20,1,0.511105060577393,5.99932503700256,1159.80953717232,"0",1,7,3
10,20,1,0.648320198059082,8.01577401161194,1161.82598519325,"0",2,2,3
10,20,1,0.515084981918335,10.0160660743713,1163.82627701759,"0",2,6,3
10,20,1,0,10.0162739753723,1163.82648301125,"Reward",0,0,3
10,4,0,0.349612951278687,0.35136890411377,1174.22808098793,"0",2,0,3
10,4,0,0,0.352705001831055,1174.22941708565,"Quit",0,0,3
10,8,1,0.50233006477356,1.9993588924408,1184.25947713852,"0",0,0,3
10,8,1,0.597739219665527,4.01589488983154,1186.27601313591,"0",2,5,3
10,8,1,0.781055927276611,6.01586699485779,1188.27598500252,"0",2,7,3
10,8,1,0.782031059265137,8.01587891578674,1190.27599716187,"0",2,5,3
10,8,1,0.607454061508179,9.99888610839844,1192.25900316238,"0",1,7,3
10,8,1,0,9.99912095069885,1192.25923800468,"Reward",0,0,3
10,20,1,0.676186800003052,1.99943685531616,1204.30956315994,"0",0,7,3
10,20,1,0.461785078048706,3.99946284294128,1206.30958914757,"0",0,7,3
10,20,1,0.623463869094849,5.99885988235474,1208.30898618698,"0",0,4,3
10,20,1,0.496243953704834,7.9991729259491,1210.30929803848,"0",0,6,3
10,20,1,0.527320861816406,9.99917793273926,1212.30930304527,"0",1,7,3
10,20,1,0,9.9993839263916,1212.30950808525,"Reward",0,0,3
10,20,1,0.665091991424561,2.01553297042847,1224.37594509125,"0",2,3,3
10,20,1,0.543298959732056,3.99857378005981,1226.3589861393,"0",1,7,3
10,20,1,0.519323110580444,5.99884796142578,1228.35926103592,"0",1,1,3
10,20,1,0.581692934036255,8.01521301269531,1230.37562608719,"0",2,6,3
10,20,1,0.830715894699097,10.0155689716339,1232.37598109245,"0",2,0,3
10,20,1,0,10.0157759189606,1232.37618708611,"Reward",0,0,3
10,8,1,0.464586973190308,1.99896717071533,1244.4259750843,"0",1,3,3
10,8,1,0.613513946533203,4.01557016372681,1246.44257807732,"0",2,7,3
10,8,1,0.549447059631348,5.9990701675415,1248.42607808113,"0",0,0,3
10,8,1,0.554816007614136,7.99926614761353,1250.4262740612,"0",0,4,3
10,8,1,0.521780014038086,9.99894905090332,1252.42595720291,"0",0,2,3
10,8,1,0,10.0002720355988,1252.42727899551,"Reward",0,0,3
10,4,0,0.256801128387451,0.262145042419434,1262.73921704292,"0",1,7,3
10,4,0,0,0.262283086776733,1262.73935413361,"Quit",0,0,3
10,4,1,0.496707201004028,1.99893808364868,1272.77612900734,"0",1,2,3
10,4,1,0.763176918029785,4.01540803909302,1274.7925992012,"0",2,1,3
10,4,1,0.451884984970093,5.99895906448364,1276.77615118027,"0",1,3,3
10,4,1,0.481679916381836,7.99875116348267,1278.77594208717,"0",1,6,3
10,4,1,0.681171178817749,10.0153970718384,1280.79258799553,"0",2,0,3
10,4,1,0,10.0156061649323,1280.79279613495,"Reward",0,0,3
10,4,0,0.277076005935669,0.298808097839355,1291.14232110977,"0",0,4,3
10,4,0,0,0.300052165985107,1291.14356613159,"Quit",0,0,3
2,20,1,0.514283895492554,2.01502799987793,1310.12587404251,"0",2,0,4
2,20,1,0,2.01523590087891,1310.12608098984,"Reward",0,0,4
2,4,1,0.697867870330811,1.9989869594574,1330.1758852005,"0",0,1,4
2,4,1,0,2.00003409385681,1330.17693114281,"Reward",0,0,4
2,20,1,0.584625005722046,1.9994261264801,1350.22614407539,"0",0,6,4
2,20,1,0,1.99968695640564,1350.22640419006,"Reward",0,0,4
2,8,1,0.472021102905273,1.99867081642151,1370.27554917336,"0",0,6,4
2,8,1,0,1.99968194961548,1370.27655911446,"Reward",0,0,4
2,8,1,0.605368852615356,1.99895191192627,1390.32586503029,"0",0,2,4
2,8,1,0,1.99995684623718,1390.32686901093,"Reward",0,0,4
2,4,1,0.648525953292847,2.0157790184021,1410.39247608185,"0",2,3,4
2,4,1,0,2.0159900188446,1410.39268517494,"Reward",0,0,4
2,4,1,0.624387979507446,1.99909710884094,1430.44256711006,"0",0,0,4
2,4,1,0,2.00009202957153,1430.44356203079,"Reward",0,0,4
2,4,1,0.581992149353027,1.99941110610962,1450.49252510071,"0",0,4,4
2,4,1,0,2.00044012069702,1450.49355316162,"Reward",0,0,4
2,8,1,0.492932081222534,1.99871397018433,1470.54213619232,"0",0,3,4
2,8,1,0,1.99892401695251,1470.542345047,"Reward",0,0,4
2,20,1,0.539274930953979,1.99888300895691,1490.59243917465,"0",1,6,4
2,20,1,0,1.99991607666016,1490.59347200394,"Reward",0,0,4
2,20,1,0.71789813041687,1.99935698509216,1510.64267611504,"0",0,5,4
2,20,1,0,2.00043487548828,1510.64375305176,"Reward",0,0,4
2,8,1,0.615432977676392,2.00005197525024,1530.6924571991,"0",2,1,4
2,8,1,0,2.00137209892273,1530.69377613068,"Reward",0,0,4
2,4,1,0.629734039306641,1.99873399734497,1550.74207615852,"0",0,1,4
2,4,1,0,1.99977397918701,1550.74311518669,"Reward",0,0,4
2,4,1,0.515902042388916,1.99901103973389,1570.79240512848,"0",1,3,4
2,4,1,0,2.0000319480896,1570.79342603683,"Reward",0,0,4
2,20,1,0.715812921524048,2.01569318771362,1590.85879015923,"0",2,1,4
2,20,1,0,2.01702618598938,1590.8601231575,"Reward",0,0,4
2,8,1,0.510894775390625,1.99912881851196,1610.9092271328,"0",1,5,4
2,8,1,0,2.00019979476929,1610.91029620171,"Reward",0,0,4
2,20,1,0.548377990722656,2.01581311225891,1630.9757130146,"0",2,3,4
2,20,1,0,2.01690101623535,1630.97680020332,"Reward",0,0,4
2,8,1,0.502079010009766,1.99913692474365,1651.0259001255,"0",1,3,4
2,8,1,0,1.9993999004364,1651.02616119385,"Reward",0,0,4
2,8,1,0.582281112670898,2.00019788742065,1671.07568001747,"0",2,2,4
2,8,1,0,2.00239586830139,1671.07787704468,"Reward",0,0,4
2,8,1,0.425411939620972,1.99952697753906,1691.12567806244,"0",1,7,4
2,8,1,0,2.00057196617126,1691.1267220974,"Reward",0,0,4
2,4,1,0.620763063430786,1.9991340637207,1711.17565011978,"0",1,2,4
2,4,1,0,1.99934792518616,1711.17586302757,"Reward",0,0,4
14,8,1,0.545907020568848,1.99942493438721,1737.1091530323,"0",1,1,5
14,8,1,0.59810996055603,4.01587295532227,1739.12560200691,"0",2,6,5
14,8,1,0.614482164382935,6.01587080955505,1741.12559914589,"0",2,2,5
14,8,1,0.631460189819336,8.01594185829163,1743.12567019463,"0",2,1,5
14,8,1,0.464450120925903,10.0161468982697,1745.12587499619,"0",2,7,5
14,8,1,0.583604097366333,11.9995019435883,1747.10923099518,"0",1,7,5
14,8,1,0.414793014526367,13.9991908073425,1749.10891914368,"0",1,3,5
14,8,1,0,13.9994068145752,1749.10913419724,"Reward",0,0,5
14,20,1,0.748767852783203,2.0159969329834,1757.17555618286,"0",2,6,5
14,20,1,0.568720102310181,3.99958992004395,1759.15914916992,"0",0,3,5
14,20,1,0.427327871322632,5.99939298629761,1761.15895104408,"0",0,3,5
14,20,1,0.506985187530518,7.99940204620361,1763.15896010399,"0",1,4,5
14,20,1,0.418884992599487,9.99942207336426,1765.15898013115,"0",1,4,5
14,20,1,0.419326066970825,11.9995820522308,1767.15914106369,"0",1,7,5
14,20,1,0.434046030044556,13.9995899200439,1769.15914916992,"0",1,5,5
14,20,1,0,13.9998660087585,1769.15942311287,"Reward",0,0,5
14,4,0,0.297911167144775,0.300069093704224,1775.51010107994,"0",2,2,5
14,4,0,0,0.301382064819336,1775.51141405106,"Quit",0,0,5
14,4,0,0.290600776672363,0.310400009155273,1779.85378599167,"0",0,3,5
14,4,0,0,0.311149120330811,1779.85453510284,"Quit",0,0,5
14,20,1,0.58227801322937,2.01594614982605,1785.90892004967,"0",2,5,5
14,20,1,0.515328884124756,4.01593899726868,1787.90891313553,"0",2,4,5
14,20,1,0.45986008644104,5.99951720237732,1789.89249205589,"0",1,4,5
14,20,1,0.597988128662109,8.01603603363037,1791.90901017189,"0",2,7,5
14,20,1,0.739177942276001,9.9993040561676,1793.89227819443,"0",0,4,5
14,20,1,0.532325029373169,11.9992890357971,1795.89226317406,"0",0,5,5
14,20,1,0.580771207809448,13.9992370605469,1797.89221119881,"0",1,2,5
14,20,1,0,13.9994461536407,1797.89241909981,"Reward",0,0,5
14,8,1,0.582167148590088,2.01623392105103,1805.9592590332,"0",2,5,5
14,8,1,0.579564809799194,3.99954581260681,1807.94257116318,"0",1,1,5
14,8,1,0.485409021377563,5.99923801422119,1809.9422621727,"0",1,2,5
14,8,1,0.538844108581543,7.99931478500366,1811.94234013557,"0",1,0,5
14,8,1,0.460551023483276,9.99922394752502,1813.94225001335,"0",1,2,5
14,8,1,0.613203048706055,12.0159029960632,1815.95892906189,"0",2,4,5
14,8,1,0.504654169082642,13.9992549419403,1817.94228005409,"0",1,1,5
14,8,1,0,13.9994628429413,1817.94248700142,"Reward",0,0,5
14,20,1,0.517816066741943,1.99914789199829,1825.99229121208,"0",1,5,5
14,20,1,0.727090835571289,3.99856400489807,1827.99170708656,"0",0,2,5
14,20,1,0.614902019500732,6.01579594612122,1830.00893807411,"0",2,2,5
14,20,1,0.482402086257935,7.99940800666809,1831.99255108833,"0",0,2,5
14,20,1,0.513799905776978,10.0161190032959,1834.00926208496,"0",2,2,5
14,20,1,0.547811985015869,12.0157809257507,1836.00892400742,"0",2,5,5
14,20,2,0.748243093490601,14.0155749320984,1838.00871706009,"0",2,4,5
14,20,1,0,14.0157859325409,1838.00892806053,"Reward",0,0,5
14,8,1,0.512155055999756,1.99896216392517,1846.05896806717,"0",1,7,5
14,8,1,0.648518085479736,4.01558017730713,1848.07558512688,"0",2,4,5
14,8,1,0.713536977767944,6.01584315299988,1850.07584905624,"0",2,1,5
14,8,1,0.571646928787231,7.99892711639404,1852.05893206596,"0",0,6,5
14,8,1,0.597655773162842,10.0152192115784,1854.07522511482,"0",2,5,5
14,8,1,0.66545295715332,12.0155620574951,1856.07556819916,"0",2,6,5
14,8,1,0.597350120544434,14.0155880451202,1858.07559418678,"0",2,0,5
14,8,1,0,14.0157961845398,1858.07580113411,"Reward",0,0,5
14,20,1,0.538841962814331,1.99907994270325,1866.12559604645,"0",1,3,5
14,20,1,0.574420928955078,3.9992527961731,1868.12577009201,"0",0,6,5
14,20,1,0.647227048873901,6.01572585105896,1870.14224219322,"0",2,5,5
14,20,1,0.520972967147827,7.99908089637756,1872.12559700012,"0",1,6,5
14,20,1,0.429709196090698,9.99905395507812,1874.12557005882,"0",1,3,5
14,20,1,0.615576028823853,11.9987208843231,1876.12523698807,"0",0,5,5
14,20,1,0.502835988998413,13.9990439414978,1878.12556099892,"0",1,4,5
14,20,1,0,13.9992628097534,1878.12577819824,"Reward",0,0,5
14,4,0,0.265938997268677,0.267966985702515,1884.44446802139,"0",2,7,5
14,4,0,0,0.269282102584839,1884.44578313828,"Quit",0,0,5
14,8,1,0.61191987991333,1.99899315834045,1890.4755821228,"0",0,6,5
14,8,1,0.393343925476074,3.99898314476013,1892.47557210922,"0",0,6,5
14,8,1,0.459052085876465,5.99894714355469,1894.47553610802,"0",1,4,5
14,8,1,0.464946985244751,8.01567912101746,1896.49226808548,"0",2,1,5
14,8,1,0.57413911819458,9.99902009963989,1898.47560811043,"0",0,1,5
14,8,1,0.531045913696289,12.0156259536743,1900.49221515656,"0",2,2,5
14,8,1,0.583876848220825,13.9989650249481,1902.4755551815,"0",0,2,5
14,8,1,0,14.0002801418304,1902.47686815262,"Reward",0,0,5
14,4,0,0.248907089233398,0.25065016746521,1908.77686214447,"0",2,5,5
14,4,0,0,0.250845193862915,1908.77705717087,"Quit",0,0,5
14,4,0,0.262063026428223,0.284521102905273,1913.09468913078,"0",0,4,5
14,4,0,0,0.28466010093689,1913.09482812881,"Quit",0,0,5
14,8,1,0.494515895843506,1.99902892112732,1919.12554216385,"0",1,4,5
14,8,1,0.431352138519287,3.99904012680054,1921.1255531311,"0",1,3,5
14,8,1,0.544845104217529,5.99929094314575,1923.12580418587,"0",0,5,5
14,8,1,0.502753019332886,7.99906492233276,1925.12557816505,"0",0,4,5
14,8,1,0.514394044876099,9.99906897544861,1927.12558221817,"0",1,2,5
14,8,1,0.53892707824707,11.9986989498138,1929.12521219254,"0",0,7,5
14,8,1,0.509935855865479,13.9990470409393,1931.12556099892,"0",1,7,5
14,8,1,0,14.0000920295715,1931.1266040802,"Reward",0,0,5
14,4,0,0.15376091003418,0.159145832061768,1937.33562922478,"0",1,7,5
14,4,0,0,0.160386800765991,1937.33687019348,"Quit",0,0,5
14,20,1,0.550899028778076,1.99867415428162,1943.37522411346,"0",0,3,5
14,20,1,0.981739044189453,4.01562309265137,1945.39217305183,"0",2,7,5
14,20,1,0.597874879837036,6.01567602157593,1947.39222621918,"0",2,5,5
14,20,1,0.556880950927734,7.99895596504211,1949.37550616264,"0",0,7,5
14,20,1,0.764906883239746,10.0153951644897,1951.39194512367,"0",2,6,5
14,20,1,0.632205963134766,12.0156741142273,1953.39222407341,"0",2,6,5
14,20,1,0.514775991439819,13.9989790916443,1955.37552905083,"0",1,1,5
14,20,1,0,13.9991891384125,1955.37573814392,"Reward",0,0,5
14,20,1,0.538635969161987,1.99908089637756,1963.42553901672,"0",1,0,5
14,20,1,0.531704902648926,3.99938678741455,1965.42584514618,"0",0,0,5
14,20,1,0.462671995162964,5.99905586242676,1967.42551422119,"0",1,0,5
14,20,1,0.469383955001831,7.99873089790344,1969.42518901825,"0",0,4,5
14,20,1,0.598749160766602,10.015722990036,1971.44218111038,"0",2,3,5
14,20,1,0.455254077911377,11.9990890026093,1973.42554712296,"0",1,0,5
14,20,1,0.663963079452515,14.0157489776611,1975.44220709801,"0",2,2,5
14,20,1,0,14.0159578323364,1975.44241499901,"Reward",0,0,5
14,8,1,0.514325857162476,2.01578378677368,1983.50882315636,"0",2,5,5
14,8,1,0.481170892715454,4.01580786705017,1985.50884699821,"0",2,1,5
14,8,1,0.521838188171387,5.99918484687805,1987.49222302437,"0",1,5,5
14,8,1,0.481063842773438,8.01561880111694,1989.5086581707,"0",2,3,5
14,8,1,0.525881052017212,9.99918985366821,1991.49222922325,"0",1,1,5
14,8,1,0.546710014343262,12.0157959461212,1993.50883603096,"0",2,4,5
14,8,1,0.489237070083618,13.999098777771,1995.49213910103,"0",0,4,5
14,8,1,0,13.9993119239807,1995.49235010147,"Reward",0,0,5
14,8,0,0.292878866195679,0.312402963638306,2001.8554391861,"0",0,7,5
14,8,0,0,0.312539100646973,2001.85557508469,"Quit",0,0,5
14,20,2,0.997114896774292,2.01554012298584,2007.90881800652,"0",2,4,5
14,20,1,0.747936964035034,4.01526498794556,2009.90854120255,"0",2,7,5
14,20,1,0.531164884567261,6.01559400558472,2011.90887117386,"0",2,5,5
14,20,1,0.505771160125732,7.99887800216675,2013.89215517044,"0",0,4,5
14,20,1,0.5417799949646,9.99916100502014,2015.89243817329,"0",1,6,5
14,20,1,0.53931188583374,11.9991230964661,2017.89239907265,"0",0,1,5
14,20,1,0.481442213058472,14.0155460834503,2019.90882301331,"0",2,2,5
14,20,1,0,14.0176930427551,2019.91096901894,"Reward",0,0,5
14,8,1,0.527358055114746,1.99919700622559,2027.95861101151,"0",0,6,5
14,8,1,0.515098094940186,4.01601791381836,2029.97543215752,"0",2,1,5
14,8,1,0.497565984725952,5.99950289726257,2031.95891714096,"0",0,6,5
14,8,1,0.454437971115112,7.99941396713257,2033.95882821083,"0",1,2,5
14,8,1,0.528872013092041,9.99940705299377,2035.95882105827,"0",0,3,5
14,8,1,0.495528936386108,11.9994239807129,2037.95883822441,"0",1,1,5
14,8,1,0.611572027206421,13.9990589618683,2039.95847320557,"0",0,2,5
14,8,1,0,13.9992699623108,2039.95868301392,"Reward",0,0,5
14,4,0,0.237805843353271,0.25777792930603,2046.26766705513,"0",0,3,5
14,4,0,0,0.257921934127808,2046.26781105995,"Quit",0,0,5
14,20,1,0.572226047515869,1.99894905090332,2052.29211401939,"0",1,0,5
14,20,1,0.51223087310791,3.99899411201477,2054.29215908051,"0",0,4,5
14,20,1,0.416727781295776,5.99862694740295,2056.29179215431,"0",0,2,5
14,20,1,0.614562034606934,8.01584601402283,2058.30901217461,"0",2,0,5
14,20,1,0.610723972320557,9.99925994873047,2060.29242515564,"0",0,5,5
14,20,1,0.5018310546875,11.998939037323,2062.29210400581,"0",1,1,5
14,20,1,0.58056902885437,14.0155880451202,2064.30875301361,"0",2,7,5
14,20,1,0,14.0157959461212,2064.30896019936,"Reward",0,0,5
14,4,0,0.179027795791626,0.202945947647095,2070.5622010231,"0",0,2,5
14,4,0,0,0.203090906143188,2070.56234622002,"Quit",0,0,5
14,20,1,0.508394956588745,1.9992470741272,2076.59212422371,"0",1,6,5
14,20,1,0.565546989440918,3.99927520751953,2078.59215211868,"0",0,1,5
14,20,1,0.474169015884399,5.99927711486816,2080.59215402603,"0",0,1,5
14,20,1,0.546873807907104,8.01587915420532,2082.60875606537,"0",2,7,5
14,20,1,0.548074960708618,10.01589012146,2084.60876703262,"0",2,3,5
14,20,1,0.64116096496582,11.9989581108093,2086.59183502197,"0",1,3,5
14,20,1,0.404896974563599,13.9992341995239,2088.59211015701,"0",1,4,5
14,20,1,0,13.9994421005249,2088.59231805801,"Reward",0,0,5
14,8,1,0.49899697303772,2.01568198204041,2096.65877199173,"0",2,0,5
14,8,1,0.430747985839844,4.01569509506226,2098.65878510475,"0",2,5,5
14,8,1,0.368713140487671,5.99906396865845,2100.64215421677,"0",1,7,5
14,8,1,0.448220014572144,8.01568388938904,2102.65877318382,"0",2,1,5
14,8,2,0.383391141891479,9.99872589111328,2104.64181613922,"0",1,2,5
14,8,1,0.715158939361572,12.0157558917999,2106.65884613991,"0",2,1,5
14,8,1,0.482501983642578,13.9990479946136,2108.6421380043,"0",1,0,5
14,8,1,0,13.999272108078,2108.64236116409,"Reward",0,0,5
14,4,0,0.160703897476196,0.180344104766846,2114.87347316742,"0",0,1,5
14,4,0,0,0.181258916854858,2114.87438821793,"Quit",0,0,5
14,20,1,0.68177604675293,1.99895691871643,2120.90881299973,"0",1,2,5
14,20,1,0.728235960006714,3.99861288070679,2122.90846920013,"0",0,0,5
14,20,1,0.375895977020264,5.99918484687805,2124.90904116631,"0",0,0,5
14,20,2,0.610054969787598,7.99898886680603,2126.90884518623,"0",0,5,5
14,20,1,0.47157621383667,9.99895095825195,2128.90880703926,"0",1,2,5
14,20,1,0.655617952346802,11.9989669322968,2130.90882301331,"0",0,1,5
14,20,1,0.546114921569824,13.9991359710693,2132.90899205208,"0",0,3,5
14,20,1,0,14.0005028247833,2132.91035819054,"Reward",0,0,5
14,8,0,0.314417839050293,0.316129207611084,2139.27581715584,"0",2,5,5
14,8,0,0,0.316364049911499,2139.27605199814,"Quit",0,0,5
14,4,0,0.084481954574585,0.0877571105957031,2143.39720916748,"0",1,5,5
14,4,0,0,0.0885400772094727,2143.39799308777,"Quit",0,0,5
10,8,1,0.614704847335815,2.01481890678406,2155.47507619858,"0",2,0,6
10,8,1,0.531327962875366,3.99853706359863,2157.45879411697,"0",1,6,6
10,8,1,0.648397922515869,6.01513600349426,2159.47539305687,"0",2,0,6
10,8,1,0.697530031204224,8.01515293121338,2161.47541022301,"0",2,0,6
10,8,1,0.496789932250977,10.0151510238647,2163.47540807724,"0",2,6,6
10,8,1,0,10.01535987854,2163.47561621666,"Reward",0,0,6
10,8,1,0.515632152557373,2.01570796966553,2175.54204916954,"0",2,1,6
10,8,1,0.699198961257935,3.99906301498413,2177.52540421486,"0",0,2,6
10,8,1,0.473201036453247,5.99905896186829,2179.52540016174,"0",1,5,6
10,8,1,0.367319107055664,7.99906802177429,2181.52540922165,"0",1,4,6
10,8,1,0.439775943756104,9.99888706207275,2183.52522802353,"0",0,3,6
10,8,1,0,9.99909615516663,2183.52543616295,"Reward",0,0,6
10,4,1,0.498434066772461,2.01569700241089,2195.59205508232,"0",2,7,6
10,4,1,0.558992862701416,3.99906182289124,2197.57542014122,"0",0,1,6
10,4,1,0.447488069534302,6.0160219669342,2199.59238004684,"0",2,0,6
10,4,1,0.413810014724731,8.01573085784912,2201.59209012985,"0",2,0,6
10,4,1,0.380922079086304,10.0157308578491,2203.59208917618,"0",2,0,6
10,4,1,0,10.0159389972687,2203.59229516983,"Reward",0,0,6
10,20,1,0.448511838912964,2.01557517051697,2215.65872311592,"0",2,1,6
10,20,1,0.549171924591064,3.9989321231842,2217.64208006859,"0",1,1,6
10,20,1,0.461751937866211,5.99857902526855,2219.64172720909,"0",0,6,6
10,20,1,0.505023002624512,7.99859213829041,2221.64174008369,"0",0,0,6
10,20,1,0.407099008560181,9.99895215034485,2223.64210009575,"0",1,7,6
10,20,1,0,10.0002679824829,2223.64341521263,"Reward",0,0,6
10,4,0,0.278352022171021,0.283681869506836,2233.97682404518,"0",1,7,6
10,4,0,0,0.285567998886108,2233.97871017456,"Quit",0,0,6
10,20,1,0.496881008148193,1.99906587600708,2244.00871515274,"0",1,6,6
10,20,1,0.480575084686279,3.9993269443512,2246.00897717476,"0",0,3,6
10,20,1,0.681401014328003,6.01570701599121,2248.02535510063,"0",2,0,6
10,20,1,0.50738000869751,7.9990599155426,2250.00870919228,"0",1,5,6
10,20,1,0.483402013778687,9.99918293952942,2252.00883221626,"0",0,3,6
10,20,1,0,9.99938893318176,2252.00903701782,"Reward",0,0,6
10,20,1,0.631977081298828,2.01571202278137,2264.07538104057,"0",2,6,6
10,20,1,0.614142894744873,4.01594805717468,2266.07561802864,"0",2,0,6
10,20,1,0.53138279914856,6.0154709815979,2268.07513999939,"0",2,4,6
10,20,1,0.447945833206177,7.99929904937744,2270.05896902084,"0",1,0,6
10,20,1,0.52108097076416,9.99871802330017,2272.05838704109,"0",0,7,6
10,20,1,0,9.99892687797546,2272.05859518051,"Reward",0,0,6
10,8,1,0.493902921676636,1.99952602386475,2284.10897922516,"0",1,7,6
10,8,1,0.433704853057861,3.99918794631958,2286.10864114761,"0",1,4,6
10,8,1,0.522350788116455,5.99946904182434,2288.10892415047,"0",0,1,6
10,8,1,0.521921873092651,7.99951004981995,2290.1089630127,"0",0,5,6
10,8,1,0.496999025344849,10.0159649848938,2292.12541818619,"0",2,5,6
10,8,1,0,10.0161700248718,2292.1256210804,"Reward",0,0,6
10,8,1,0.55330491065979,1.99885511398315,2304.17523002625,"0",0,6,6
10,8,1,0.597848892211914,4.01556015014648,2306.19193506241,"0",2,7,6
10,8,1,0.64780592918396,6.01565909385681,2308.19203305244,"0",2,5,6
10,8,1,0.549396991729736,7.99895405769348,2310.17532920837,"0",1,6,6
10,8,1,0.526552200317383,9.99902510643005,2312.17540001869,"0",1,1,6
10,8,1,0,9.99923300743103,2312.17560720444,"Reward",0,0,6
10,20,1,0.47539496421814,1.99877119064331,2324.22502112389,"0",0,3,6
10,20,1,0.500554084777832,3.99911117553711,2326.22536110878,"0",1,6,6
10,20,1,0.433422088623047,5.9990701675415,2328.22532010078,"0",1,3,6
10,20,1,0.505304098129272,7.9987690448761,2330.22501921654,"0",0,4,6
10,20,1,0.582193851470947,10.0157580375671,2332.24200820923,"0",2,1,6
10,20,1,0,10.0159661769867,2332.24221420288,"Reward",0,0,6
10,4,1,0.534370899200439,1.99916505813599,2344.29218101501,"0",1,1,6
10,4,1,0.493380069732666,3.99864912033081,2346.29166507721,"0",0,0,6
10,4,1,0.424542903900146,5.99864292144775,2348.29165816307,"0",0,0,6
10,4,1,0.458708047866821,7.99903512001038,2350.29205012321,"0",1,7,6
10,4,1,0.530754804611206,10.0156519412994,2352.30866718292,"0",2,1,6
10,4,1,0,10.0158591270447,2352.30887317657,"Reward",0,0,6
10,4,0,0.235496044158936,0.254883050918579,2362.6145670414,"0",0,0,6
10,4,0,0,0.255072116851807,2362.61475610733,"Quit",0,0,6
10,8,1,0.418461084365845,1.9990029335022,2372.64197421074,"0",1,6,6
10,8,1,0.434843063354492,3.99866890907288,2374.64163899422,"0",0,4,6
10,8,1,0.420419216156006,5.99882388114929,2376.64179515839,"0",0,5,6
10,8,1,0.432781934738159,7.99910593032837,2378.64207720757,"0",1,6,6
10,8,1,0.445214033126831,9.9992139339447,2380.64218616486,"0",1,2,6
10,8,1,0,10.0002799034119,2380.64324998856,"Reward",0,0,6
10,8,1,0.467475891113281,1.99873900413513,2392.69165205956,"0",0,6,6
10,8,1,0.457627058029175,3.99933695793152,2394.69225120544,"0",0,3,6
10,8,1,0.557278156280518,5.99931597709656,2396.69223022461,"0",0,5,6
10,8,1,0.540966033935547,7.9990348815918,2398.69194817543,"0",1,3,6
10,8,1,0.521826982498169,9.99878001213074,2400.69169306755,"0",0,1,6
10,8,1,0,9.99898886680603,2400.69190120697,"Reward",0,0,6
10,20,1,0.476370096206665,1.99906897544861,2412.7419731617,"0",0,0,6
10,20,1,0.490494966506958,3.99912810325623,2414.74203205109,"0",1,4,6
10,20,1,0.413631916046143,5.99909496307373,2416.74199914932,"0",1,3,6
10,20,1,0.547568082809448,7.99872398376465,2418.74162817001,"0",0,2,6
10,20,1,0.489312887191772,9.99904704093933,2420.74195098877,"0",1,7,6
10,20,1,0,9.99925518035889,2420.74215817451,"Reward",0,0,6
10,4,0,0.299288034439087,0.301055192947388,2431.09399414062,"0",2,2,6
10,4,0,0,0.301250219345093,2431.09418916702,"Quit",0,0,6
10,20,1,0.511563062667847,1.99894690513611,2441.12527418137,"0",0,0,6
10,20,1,0.45847487449646,3.99896001815796,2443.12528705597,"0",1,2,6
10,20,1,0.441474914550781,5.99925994873047,2445.12558722496,"0",0,2,6
10,20,1,0.494424104690552,7.9987690448761,2447.12509703636,"0",0,0,6
10,20,1,0.547569036483765,10.0156230926514,2449.14195013046,"0",2,4,6
10,20,1,0,10.0158340930939,2449.14215922356,"Reward",0,0,6
10,4,1,0.498409986495972,2.01560688018799,2461.20855998993,"0",2,1,6
10,4,1,0.456521987915039,3.99868679046631,2463.19164013863,"0",1,0,6
10,4,1,0.465916872024536,5.99904298782349,2465.19199609756,"0",1,7,6
10,4,1,0.514717102050781,8.01531481742859,2467.20826816559,"0",2,2,6
10,4,1,0.464622974395752,10.0156228542328,2469.20857620239,"0",2,3,6
10,4,1,0,10.0169358253479,2469.20988702774,"Reward",0,0,6
10,20,1,0.565287113189697,2.01568388938904,2481.27524805069,"0",2,2,6
10,20,1,0.447537899017334,4.01569199562073,2483.2752571106,"0",2,4,6
10,20,1,0.515580892562866,5.99869894981384,2485.25826406479,"0",1,6,6
10,20,1,0.534340858459473,7.9989058971405,2487.25847101212,"0",0,7,6
10,20,1,0.451605081558228,9.99906897544861,2489.25863409042,"0",1,4,6
10,20,1,0,9.99928283691406,2489.25884699821,"Reward",0,0,6
10,20,1,0.465366840362549,2.015625,2501.32523703575,"0",2,0,6
10,20,1,0.396631002426147,4.01590704917908,2503.32552099228,"0",2,4,6
10,20,1,0.501030921936035,5.99901795387268,2505.30863118172,"0",1,2,6
10,20,1,0.998099088668823,7.99897313117981,2507.30858516693,"0",2,6,6
10,20,1,0.495924949645996,10.0156059265137,2509.32521915436,"0",2,0,6
10,20,1,0,10.0158159732819,2509.32542800903,"Reward",0,0,6
10,4,0,0.410019874572754,0.412933111190796,2519.78877615929,"0",1,3,6
10,4,0,0,0.41307806968689,2519.78892111778,"Quit",0,0,6
10,8,1,0.532161951065063,2.0158748626709,2529.8418841362,"0",2,0,6
10,8,1,0.496037006378174,3.99943399429321,2531.8254430294,"0",1,6,6
10,8,1,0.51478910446167,6.01585698127747,2533.84186506271,"0",2,1,6
10,8,1,0.531619071960449,8.01587390899658,2535.84188318253,"0",2,6,6
10,8,1,0.478908061981201,9.99928307533264,2537.82529211044,"0",1,4,6
10,8,1,0,9.99950408935547,2537.82551217079,"Reward",0,0,6
10,4,1,0.51506519317627,2.01527500152588,2549.89151215553,"0",2,0,6
10,4,1,0.430704832077026,4.01567316055298,2551.89191007614,"0",2,5,6
10,4,1,0.465324878692627,6.01564812660217,2553.89188504219,"0",2,7,6
10,4,1,0.448654890060425,8.01587104797363,2555.89210820198,"0",2,6,6
10,4,1,0.580035209655762,10.0158860683441,2557.89212417603,"0",2,2,6
10,4,1,0,10.0161471366882,2557.8923830986,"Reward",0,0,6
